SDS 2.3	Background Spectra	1.0
Well Nb	1	2	3	4	5	6	7	8	9	10	11	12	13	14	15	16	17	18	19	20	21	22	23	24	25	26	27	28	29	30	31	32
1	821.2143	825.5714	842.5714	860.4286	864.9286	879.9286	888.6429	906.0	916.5714	922.4286	924.4286	928.5714	925.2143	926.9286	919.4286	915.6429	908.0	902.5714	903.9286	904.0714	899.2857	897.0	892.5	890.6429	892.3571	888.5714	885.3571	882.7143	882.8571	880.8571	882.3571	874.2857
2	819.5	830.5714	846.7857	873.6429	885.6429	903.3571	923.1429	933.5	946.0	959.2857	963.2143	967.6429	968.0714	960.2857	955.7857	951.2143	943.6429	934.2143	932.1429	932.4286	929.7857	925.5	922.8571	916.5714	915.8571	916.6429	918.7143	912.9286	905.5	912.9286	901.2143	900.7857
3	821.6429	832.0714	849.2857	860.4286	869.7857	881.8571	894.5714	907.0	921.1429	924.6429	931.5714	932.5	928.2857	932.0714	922.8571	914.7143	912.3571	912.2143	909.1429	908.0	906.5	896.3571	898.1429	899.8571	887.2857	888.0	890.2143	886.9286	890.2857	882.1429	881.2857	879.4286
4	816.5	831.2143	849.1429	863.4286	873.0	882.2143	897.8571	905.7857	914.6429	921.2143	929.3571	932.0	931.7143	927.7143	921.2857	922.1429	916.6429	912.0	903.4286	898.6429	905.3571	899.7857	894.3571	894.7857	893.2143	897.5	883.8571	887.5714	885.3571	886.1429	876.7143	874.7857
5	819.4286	830.6429	846.9286	860.8571	870.9286	884.0	897.0714	912.6429	920.0714	925.7857	929.6429	931.8571	930.1429	927.8571	925.2143	918.3571	911.2143	911.0714	903.6429	904.2143	906.3571	896.3571	896.5	892.7143	892.4286	890.1429	884.2143	891.5	881.4286	885.2857	882.9286	874.2857
6	815.9286	835.6429	845.9286	863.2143	868.2143	888.6429	899.5	908.8571	922.0714	928.5	935.6429	942.7143	933.6429	934.2857	926.6429	926.7143	919.1429	914.9286	910.1429	904.8571	906.7857	898.5	897.2143	899.0714	901.6429	890.3571	889.7143	891.6429	891.3571	883.8571	885.2857	879.8571
7	825.4286	830.5	846.0714	863.7143	868.0	887.5	896.3571	904.0	918.2857	925.5	927.8571	931.2143	930.1429	930.6429	919.9286	920.5	916.2143	908.1429	909.0714	903.8571	900.5714	898.4286	893.0	891.3571	893.5714	887.9286	889.4286	886.6429	888.6429	881.7143	881.4286	876.1429
8	818.5	836.0	854.2857	870.5714	872.5	894.5	904.9286	912.0	924.0	933.2143	938.4286	939.0714	934.0	938.0714	929.7143	927.0714	917.7143	910.5714	910.1429	910.0714	905.0714	898.5	904.0	896.8571	895.5714	896.4286	896.9286	891.6429	889.2143	890.5	887.7143	876.2857
9	820.9286	832.5714	851.5	863.5	869.5714	878.8571	898.5714	904.1429	913.9286	918.1429	927.2143	922.1429	926.1429	921.2857	917.0	916.7143	906.7143	905.7143	904.2143	898.6429	899.7857	894.0714	892.6429	888.6429	885.0	886.4286	883.0714	885.7143	882.9286	879.5	876.0	881.3571
10	820.3571	842.5714	854.4286	859.7857	865.1429	885.4286	894.5714	900.7857	920.3571	915.5	922.6429	928.5714	925.1429	928.5714	917.5714	917.8571	910.9286	908.5	909.1429	900.9286	894.5714	892.4286	892.1429	898.2143	891.1429	884.5714	881.8571	886.0714	884.4286	877.4286	881.8571	876.5714
11	818.0714	833.6429	849.5	863.3571	872.3571	887.7857	900.1429	907.6429	916.0	928.0714	931.7857	931.7857	932.1429	929.7857	921.7143	919.5	912.5	907.1429	905.4286	905.7143	903.4286	898.5714	894.5	895.2143	889.3571	891.5714	888.2143	888.9286	882.7857	888.1429	881.4286	874.2143
12	818.7857	837.2143	855.7857	863.2857	871.7857	880.9286	893.6429	903.2857	908.7143	920.3571	922.2143	929.0714	925.2857	923.0714	920.1429	914.6429	910.2143	906.7143	907.7857	903.0714	900.2143	893.6429	892.7143	888.1429	892.1429	887.5	888.9286	882.1429	882.7857	878.8571	879.5	881.1429
13	821.2857	832.2143	857.4286	865.7143	871.5	887.2143	903.0	907.1429	920.2857	924.6429	935.7143	932.2143	932.3571	931.6429	921.2857	921.0714	915.1429	908.7143	908.4286	903.4286	905.4286	898.2143	897.0	894.6429	895.9286	888.7857	888.8571	886.2143	886.0	881.5	876.0714	873.6429
14	816.2143	841.6429	855.2857	873.0	876.7857	887.8571	909.1429	914.2143	920.2143	928.1429	936.0714	935.5	937.9286	933.4286	930.2143	928.2143	918.2143	913.6429	911.2857	907.3571	905.9286	901.0714	903.9286	896.5714	888.5714	890.8571	891.8571	889.0	890.1429	887.0714	882.5714	873.7143
15	816.6429	840.2143	850.6429	870.4286	876.9286	886.2857	899.5714	911.0714	921.7857	930.2143	934.7143	940.0	933.3571	933.1429	926.7857	926.1429	913.7143	916.7857	914.9286	907.7857	904.5714	898.2857	902.4286	901.2857	896.8571	892.9286	898.9286	891.5714	889.1429	884.3571	883.5	884.7857
16	819.7857	845.3571	860.1429	871.1429	877.1429	891.8571	908.9286	926.1429	937.7857	941.8571	953.0	954.2143	956.3571	948.5714	943.7857	940.7143	935.2857	927.2143	924.7857	924.2143	922.6429	917.8571	909.0714	910.2857	913.8571	910.0	909.0714	906.1429	908.4286	900.5	895.8571	898.9286
17	820.7857	842.5714	851.1429	874.0	878.9286	894.5714	899.8571	914.4286	926.3571	936.4286	938.6429	943.2857	940.6429	939.2857	935.3571	928.9286	921.2857	914.7143	911.6429	913.1429	909.6429	908.0	903.5714	898.0	892.5714	898.7857	894.2857	898.4286	890.2857	892.0	888.5	879.0
18	822.2857	837.2143	858.4286	880.9286	888.7143	904.0714	920.2857	935.3571	943.7857	952.5	961.7857	968.9286	961.4286	959.2857	956.0714	949.7857	944.8571	935.9286	933.7143	928.0714	929.5	922.9286	919.3571	919.9286	917.4286	916.7857	914.3571	906.6429	903.9286	903.5714	901.5714	894.5
19	821.0	840.6429	864.8571	873.4286	877.4286	888.2857	896.0714	917.1429	926.1429	934.6429	940.0	936.7857	938.5	936.6429	934.9286	924.5	924.0714	912.9286	917.0714	902.5	913.0	906.8571	901.3571	895.2143	898.4286	894.2143	894.7857	899.2143	897.2143	886.0	882.5	886.5
20	822.5714	835.1429	862.3571	878.7143	882.0	887.8571	903.0	921.7143	927.7143	936.5714	938.9286	946.1429	944.1429	937.7857	937.2143	931.6429	924.0	914.4286	918.7143	914.7143	912.9286	913.2857	903.9286	902.2143	904.4286	899.2857	896.7857	898.5714	897.5714	887.3571	884.1429	879.4286
21	814.9286	841.5714	856.3571	883.3571	882.0	893.0714	906.0714	923.2857	935.0714	939.0	948.5	948.2143	946.2857	951.1429	939.0	935.5	933.7857	916.6429	923.2143	916.8571	915.7143	913.2857	908.6429	905.5714	903.0714	901.2857	898.9286	900.6429	895.9286	895.2143	884.5714	883.3571
22	817.2857	843.9286	865.2143	883.8571	890.9286	901.6429	917.1429	924.8571	941.7857	953.7143	957.5714	959.6429	959.2143	954.5714	948.7857	942.5714	939.2143	934.7857	931.2143	926.6429	926.0714	922.5714	915.9286	912.5714	913.7857	913.6429	907.8571	907.0714	909.7857	901.0	898.4286	890.5714
23	822.7143	842.2857	863.4286	884.5	878.7857	894.6429	908.0714	921.6429	928.7143	936.0714	941.0714	939.5714	937.1429	939.8571	937.2143	931.4286	925.9286	921.5714	918.4286	914.4286	914.9286	910.2143	903.7143	901.5714	900.1429	892.6429	894.2143	893.4286	890.0714	896.5	885.4286	881.5714
24	820.06665	839.0	870.73334	882.06665	883.5333	900.5333	915.8	926.6667	938.86664	948.26666	951.6	957.93335	952.8	949.8	941.4667	942.2	933.86664	928.86664	922.26666	921.13336	915.0	917.0	915.2	914.3333	905.4667	904.6	902.86664	906.5333	903.5333	902.3333	896.8	891.13336
25	822.4286	837.2857	849.2857	870.7857	874.0	885.2857	899.7857	910.0714	914.7857	927.0714	933.4286	929.2857	932.5714	930.4286	928.7857	924.7857	919.3571	914.2857	916.5	906.7857	907.6429	899.1429	897.7143	899.0	894.5	893.1429	892.3571	890.2143	893.9286	892.5714	883.4286	878.4286
26	821.7857	830.1429	850.0714	870.3571	873.3571	893.2143	905.0714	912.7143	922.3571	933.4286	937.5714	940.5714	942.0714	931.5714	936.7857	928.3571	922.1429	918.5714	912.2857	914.9286	909.4286	909.7143	904.1429	900.9286	902.9286	899.9286	899.0	896.2857	896.0	892.2143	887.7857	889.2857
27	817.7143	840.0714	853.7143	868.8571	874.7857	884.0	902.2143	915.2857	925.0714	932.9286	938.9286	940.7143	940.2857	936.0714	929.2143	927.7143	923.8571	918.7143	909.7143	905.7857	910.1429	907.6429	908.3571	902.0714	906.3571	899.0714	896.9286	894.2857	900.0714	892.2143	885.7143	881.5714
28	817.5714	835.6429	845.7143	863.7857	874.7143	886.7143	902.5	914.2857	918.0	934.0	938.4286	936.5714	936.4286	929.9286	930.7857	931.2143	922.8571	916.0	904.8571	914.8571	914.7143	896.7857	902.7857	894.9286	898.2143	896.2143	890.7143	893.6429	895.5	891.7143	887.8571	881.2857
29	820.3571	833.8571	850.5714	861.1429	874.2143	888.4286	903.2857	912.0714	924.7143	934.2143	938.9286	940.5	939.5714	936.2857	930.5714	925.1429	920.7857	920.6429	918.7857	915.0714	910.7857	905.8571	900.6429	903.3571	904.2857	900.6429	895.8571	895.0	892.8571	887.8571	887.8571	886.5
30	826.0714	850.9286	863.8571	880.7143	876.4286	888.2857	902.8571	917.0	925.7857	942.5714	935.5714	942.0	942.8571	940.5714	934.5714	927.1429	923.2143	921.6429	916.8571	916.8571	912.1429	912.1429	902.3571	900.4286	902.3571	902.0	899.2857	894.8571	892.4286	888.7857	892.5	888.5
31	822.4286	851.6429	864.6429	882.5	878.7143	894.1429	905.5714	916.0	925.5714	937.3571	942.7857	936.2143	937.7857	936.2143	929.0	930.9286	928.4286	916.9286	916.2857	918.7143	911.6429	907.2143	901.2857	901.7857	901.5	899.1429	899.1429	893.2857	897.9286	891.3571	889.0714	883.8571
32	822.7857	853.7143	868.4286	887.7143	880.7143	894.2143	908.7857	917.2143	926.7857	939.8571	940.2857	945.4286	942.4286	939.4286	939.2857	934.0714	927.2857	919.0714	917.5	918.3571	909.0	916.5714	910.2143	902.0714	903.7857	899.2143	898.2857	896.8571	896.0714	894.1429	888.6429	879.0
33	819.8571	851.0714	881.7857	889.0714	887.1429	888.5714	902.6429	912.5	928.0714	930.1429	938.8571	940.2143	941.4286	929.6429	932.2143	930.1429	924.3571	913.3571	911.9286	909.7857	911.2857	910.2143	907.1429	900.7857	901.4286	902.0714	896.0714	895.4286	894.2857	892.9286	886.0714	884.9286
34	818.7857	847.5	867.5	880.4286	876.9286	891.6429	903.4286	915.2857	924.5714	931.0	939.3571	942.0	939.3571	937.2143	933.6429	927.8571	923.7143	923.7143	912.8571	917.2143	909.9286	906.4286	898.7857	900.8571	902.2857	898.4286	891.5714	898.0	895.3571	892.2857	888.1429	881.2143
35	822.5714	847.4286	869.4286	881.1429	878.7857	885.6429	902.2857	912.9286	926.5714	933.7857	935.5	938.2857	935.3571	933.0	934.6429	930.3571	921.0714	916.7857	914.7143	914.7857	907.0	901.9286	905.4286	903.2857	900.5	900.2143	893.0	892.7143	896.0714	890.0714	889.6429	880.5
36	817.0	846.3571	870.3571	883.2857	883.4286	897.6429	908.2857	918.5	928.9286	939.3571	945.7857	944.0	949.0	943.0	935.5714	931.3571	929.9286	921.0714	917.3571	919.1429	914.5	913.5	909.7857	905.7143	902.3571	903.5	899.6429	898.0	895.0714	895.8571	894.6429	881.5714
37	823.8571	853.5	872.2857	887.7857	881.6429	896.2857	904.7143	919.9286	924.2857	940.5714	943.3571	945.7857	947.5	939.5714	934.0714	935.2857	929.0714	921.1429	923.5714	920.7143	913.9286	909.4286	907.4286	898.8571	905.6429	900.6429	900.7857	896.0	895.8571	889.6429	893.5714	886.0
38	827.7857	859.0	879.3571	886.8571	882.9286	900.9286	910.1429	924.4286	929.9286	942.2143	949.0	949.9286	946.9286	943.3571	940.4286	940.4286	927.5	931.9286	924.7857	918.7857	923.4286	910.4286	915.7857	903.5714	903.5714	904.1429	902.5	903.6429	898.8571	896.9286	894.7143	897.5
39	819.2857	855.7857	883.9286	890.0	885.7143	892.0714	903.8571	920.9286	931.0	938.7857	949.0714	947.9286	949.8571	942.2143	938.5714	938.0	930.6429	922.5	917.8571	919.7143	911.7143	911.0	910.7143	906.8571	903.7857	904.4286	904.8571	899.5714	896.0	895.9286	891.0	882.2143
40	823.0714	857.4286	881.2143	885.8571	882.5	892.0714	904.0	919.8571	934.0714	940.2143	948.2143	950.7143	944.5	942.3571	943.4286	931.5	927.9286	923.7857	920.8571	918.5	914.1429	912.2857	912.0	903.5714	906.7143	905.2857	900.2857	905.7143	897.7857	894.9286	890.5	889.2143
41	826.2143	855.7857	884.9286	898.4286	886.4286	908.2143	923.6429	940.5714	951.1429	963.2143	975.0714	972.7143	968.2857	965.3571	959.9286	955.6429	943.3571	944.1429	935.3571	936.1429	934.3571	927.2857	922.7143	920.9286	916.8571	918.7857	915.0714	912.2143	911.7857	911.1429	903.0714	896.1429
42	824.3571	856.2857	874.0714	884.2857	888.0	907.3571	915.2857	936.5	940.0714	954.7857	956.7857	958.8571	957.6429	953.5714	956.6429	947.7143	939.4286	930.1429	930.4286	925.2143	925.3571	915.9286	916.1429	911.0714	909.7857	910.7857	909.8571	908.7857	903.3571	900.1429	898.6429	885.3571
43	825.3571	856.9286	875.7143	884.5	886.8571	895.7857	908.0	921.0	930.2857	945.2143	948.4286	948.1429	952.5714	942.1429	940.5714	933.0	929.2143	924.6429	924.5	919.9286	917.5	911.5714	915.0714	902.3571	895.1429	901.2857	903.7857	907.5714	899.5714	894.4286	889.7143	886.0714
44	825.3571	848.0714	877.0	894.3571	887.7143	896.4286	910.6429	925.7857	931.5	940.5714	951.2857	954.3571	945.6429	943.3571	942.2857	942.2143	937.2143	927.9286	925.4286	919.4286	920.2857	917.1429	908.7143	910.2143	909.0714	908.9286	901.0	904.0714	903.0714	894.9286	894.2143	891.2143
45	824.2143	847.2857	866.3571	882.5	885.8571	899.7143	906.7143	929.2857	930.0	945.2143	954.0714	953.0	953.7857	956.0714	945.1429	940.0714	936.5	926.5714	931.5714	923.0	922.7143	922.2143	918.1429	911.2857	911.1429	910.4286	906.0714	904.1429	902.2857	902.5714	896.2143	891.7143
46	820.2143	841.3571	875.3571	899.5714	892.2857	899.4286	914.0	923.0714	938.8571	945.6429	951.5	957.5	952.6429	950.5714	950.7857	940.1429	940.1429	923.7143	937.2857	927.1429	923.8571	922.5	915.2143	911.5714	912.2143	910.2857	909.9286	907.2143	904.1429	901.7143	900.8571	892.7857
47	826.5	849.0714	909.2143	941.2857	911.4286	908.6429	913.0714	937.2857	950.0	955.2143	966.5714	965.4286	963.7857	957.7143	960.5	952.6429	946.5714	936.5	940.6429	933.9286	936.1429	922.2143	929.0	920.3571	917.0714	916.5	914.5714	910.9286	909.8571	903.8571	900.2857	898.5714
48	824.3333	859.2	888.86664	910.06665	900.3333	905.3333	924.5333	937.2	952.0	960.26666	970.06665	973.73334	968.5333	967.13336	962.93335	952.73334	948.73334	945.6667	940.73334	937.0	932.06665	931.8	925.6	923.6	923.93335	916.06665	918.3333	918.6	917.6667	907.6	905.4667	906.0
49	824.0	833.8571	839.0	853.5714	859.7857	870.4286	877.0	886.5714	890.2857	897.0714	902.2143	903.2143	905.2857	903.0	900.5714	901.3571	894.5	892.6429	892.0714	882.2143	887.2143	887.5714	882.7857	880.4286	875.5714	878.3571	876.9286	880.2143	872.7143	873.7143	868.7857	868.2857
50	825.9286	832.2857	852.0	856.0	860.5714	869.4286	873.3571	888.1429	891.9286	897.0714	899.7143	905.5	905.1429	897.9286	902.4286	896.1429	895.7143	892.2857	885.9286	888.7143	881.3571	882.7857	879.7857	879.2143	877.0714	878.6429	874.5714	875.0714	872.7143	880.5714	872.5	873.1429
51	824.8571	840.0714	843.2143	854.3571	855.2143	872.2143	880.4286	885.2857	891.0	899.6429	901.1429	905.0714	900.5	906.4286	898.9286	899.9286	890.7143	888.7857	886.9286	883.7143	886.2857	883.7857	882.5	879.2857	878.4286	878.4286	874.0	877.2857	877.2143	872.8571	870.3571	872.3571
52	825.2857	837.4286	841.7143	857.5	868.4286	874.9286	887.5	901.0	909.3571	912.7143	912.0714	920.4286	919.2857	919.6429	912.0	908.5714	902.7143	906.7143	905.8571	898.6429	898.1429	891.6429	890.7143	885.5714	889.1429	888.5714	885.2857	890.3571	884.0714	880.2857	876.2857	876.0
53	823.0714	836.0714	848.2143	853.6429	873.3571	875.7143	889.9286	893.7857	904.9286	915.5714	913.9286	916.2857	919.7143	920.7857	911.0	909.7143	903.1429	900.2143	896.0714	898.5	892.7143	894.0714	894.0	887.7857	890.8571	886.0	881.7857	882.2143	883.2143	881.3571	876.7857	874.4286
54	824.2857	837.8571	849.2143	861.7143	867.1429	875.1429	887.1429	897.0	909.5	913.2857	916.1429	918.6429	917.7143	919.4286	911.8571	910.0	909.1429	902.7143	895.5714	897.1429	890.7857	895.1429	889.1429	894.9286	885.8571	887.7857	883.2857	882.1429	878.1429	881.5714	876.2143	872.7143
55	818.9286	837.7857	853.3571	863.0	857.5	875.7857	881.5	894.9286	898.3571	904.2143	909.5	913.7857	909.4286	906.3571	906.0714	902.0	899.2143	895.7857	891.5	894.7857	886.7143	886.8571	887.1429	885.8571	878.9286	880.5714	880.6429	876.7857	882.1429	873.5	872.8571	869.2857
56	824.6429	837.7857	853.3571	861.8571	869.0714	881.9286	893.0714	902.3571	912.7857	919.7857	927.3571	923.8571	928.5714	922.4286	917.9286	917.2857	912.9286	912.5714	903.0	902.4286	896.2143	899.0	896.0714	895.8571	893.1429	895.1429	892.5	892.1429	888.5714	881.5714	885.9286	879.5714
57	816.7857	840.9286	856.2143	860.7143	868.0	874.1429	889.7857	892.4286	907.0	909.7857	914.5714	916.0	916.5	915.5714	912.2143	906.4286	905.3571	902.7143	898.3571	900.7857	893.2857	895.2143	891.6429	889.0714	889.2143	887.1429	886.7143	886.6429	876.5	881.2857	876.7857	878.2143
58	817.0	839.9286	845.8571	862.7857	859.0	867.5714	881.7857	887.2857	897.9286	902.5	909.1429	911.2143	905.2143	904.8571	901.7857	904.6429	900.1429	895.2857	890.0714	888.3571	889.7143	888.7143	881.5	881.7143	881.2143	879.1429	880.9286	884.2143	874.9286	877.2143	871.2857	871.1429
59	819.0	839.8571	854.2857	861.3571	859.2143	871.2143	883.0	895.0	900.1429	903.8571	907.6429	905.1429	908.2143	902.4286	902.1429	904.3571	896.5	892.5714	895.5	890.5	891.9286	886.9286	887.5	883.1429	880.2143	880.1429	877.3571	874.7857	875.1429	875.1429	870.5	870.0
60	820.1429	840.7143	853.9286	861.7857	867.7143	875.1429	883.2143	891.3571	896.5	903.4286	910.7857	911.5	917.2143	908.1429	905.4286	903.7143	901.2857	896.5	897.9286	896.6429	890.5	892.5714	879.2143	888.2143	884.7857	884.7857	883.3571	875.2143	880.7143	870.2143	874.9286	867.8571
61	824.9286	839.2857	852.6429	859.8571	868.1429	880.0714	886.0714	895.3571	900.0	907.7143	909.7143	912.2857	906.7143	911.0714	908.3571	900.6429	898.5	895.1429	890.7143	893.8571	892.2857	891.9286	887.7857	884.4286	887.0714	885.2143	881.4286	877.5	877.4286	874.5714	873.2143	872.5
62	819.5	838.5714	849.7857	859.5	867.4286	876.9286	882.2857	893.2857	904.3571	911.6429	914.1429	912.2857	916.6429	910.0	908.5	908.1429	899.9286	896.4286	888.6429	900.7857	894.0	893.2857	892.0	887.7857	884.2143	887.0714	879.1429	887.0714	875.6429	876.5714	873.6429	868.5714
63	822.5	843.7857	861.0714	871.7857	872.0	879.7143	891.7143	900.8571	912.2857	914.7143	925.0714	920.5714	918.7857	919.5714	920.5714	914.7143	907.3571	905.4286	902.8571	902.5714	892.9286	899.2143	896.5714	892.5	888.9286	888.1429	886.2857	887.8571	886.7143	877.6429	881.2143	873.4286
64	827.8571	842.6429	856.0	864.5	868.3571	885.5	891.7857	902.5	918.2857	919.9286	924.2143	923.8571	927.6429	922.8571	919.9286	920.6429	911.9286	908.5	904.5714	903.6429	906.6429	899.4286	895.8571	898.9286	889.9286	896.2857	888.2143	890.3571	888.5714	887.0	880.7857	874.0714
65	824.7143	849.5714	862.0714	866.9286	869.0	878.8571	887.2143	896.1429	906.1429	906.3571	917.7143	913.5	913.5	911.1429	910.4286	910.9286	902.3571	895.8571	897.4286	893.2857	889.0714	886.5	888.3571	881.2857	887.8571	882.7143	886.2857	877.7857	881.5	882.7143	876.5	874.9286
66	827.4286	845.9286	864.8571	860.6429	874.0714	880.5714	891.1429	903.7143	908.0	915.0714	920.4286	922.6429	916.2143	917.3571	914.7143	913.5714	905.5	905.6429	904.0714	900.1429	898.0	898.6429	893.5	889.9286	890.8571	890.7857	888.3571	883.7143	888.1429	881.9286	879.6429	876.5714
67	813.8571	837.0	855.3571	861.5714	869.2143	875.7857	888.7143	898.8571	904.7143	917.0714	916.2857	922.1429	925.2143	919.0	918.1429	909.5	907.7143	901.2143	901.7857	897.4286	893.7143	893.0	893.8571	888.2857	892.0714	885.7857	881.7857	885.5714	882.7857	882.2857	878.4286	876.7143
68	826.8571	852.2857	873.8571	873.8571	869.3571	879.0	889.5	905.0	912.1429	920.3571	923.2143	921.7143	923.7143	921.0	915.3571	913.7857	909.3571	904.3571	902.8571	899.7143	897.4286	898.5714	898.3571	894.2143	888.9286	887.2143	887.2857	885.4286	884.9286	882.2857	879.1429	879.2857
69	823.1429	843.4286	858.1429	872.2857	877.3571	887.6429	899.3571	912.0714	922.2143	927.0714	932.2143	930.3571	932.9286	926.7143	926.1429	920.5714	910.7143	921.0	915.7857	909.0	913.4286	908.7857	901.9286	901.6429	901.7143	900.7143	895.7143	898.7857	897.8571	894.4286	892.5	885.3571
70	822.2143	835.5714	859.3571	867.3571	871.2857	883.5714	889.2143	901.7857	902.2857	913.2143	920.0	918.0	922.2857	915.2857	918.1429	916.5714	911.5	905.7143	908.6429	905.0714	901.0	899.7143	894.0	893.8571	891.0714	887.3571	884.1429	886.1429	883.5714	882.7857	877.0	878.0714
71	824.0	852.9286	866.7857	877.5	872.1429	882.3571	889.5714	896.5	911.1429	910.7857	921.7857	915.8571	916.0714	914.2857	911.7857	910.5714	905.2857	899.2857	901.9286	900.2857	898.9286	891.8571	894.2857	888.5	887.7857	885.5	888.2143	888.3571	878.8571	879.7857	877.3571	874.2143
72	824.8	840.73334	858.6	873.6667	882.4	891.3333	900.86664	908.2	925.93335	932.93335	935.3333	936.4667	934.93335	929.3333	934.4667	928.8	920.4	923.8	917.5333	916.2	912.3333	914.13336	904.2	903.93335	902.93335	904.3333	904.2	897.2	893.4	890.73334	890.6	881.4667
73	825.0714	834.4286	845.5714	856.0	866.2857	881.7143	893.5	894.7857	896.0714	908.5714	911.5714	912.7857	915.1429	914.9286	911.1429	902.6429	900.9286	898.0	897.7143	895.6429	897.8571	891.3571	896.3571	879.5714	885.5	890.4286	886.5	879.7143	881.8571	876.9286	879.1429	874.0714
74	827.5	832.3571	843.9286	857.0	862.4286	869.4286	883.0	888.0	894.3571	902.5	908.4286	907.3571	903.9286	902.8571	907.0	898.6429	892.5714	896.2143	889.3571	893.4286	891.9286	881.7143	889.1429	888.9286	884.0	876.6429	882.7143	874.6429	875.5714	875.4286	868.9286	868.5
75	826.4286	841.7857	857.8571	863.2857	862.2143	873.5714	884.7857	891.7857	896.7857	905.1429	906.2857	915.0	913.7143	912.5714	903.3571	900.0	898.5714	893.6429	895.1429	896.0	896.1429	889.0714	885.9286	880.5714	882.5714	879.6429	879.9286	876.4286	871.0714	873.2857	874.0714	871.0714
76	823.4286	833.2143	848.3571	861.7857	860.2143	869.2143	883.2857	888.0	892.4286	891.0714	904.0	911.5714	909.3571	910.0714	904.2857	896.5	900.4286	895.5	900.7143	889.8571	891.2857	886.7857	889.1429	885.0	883.0714	879.4286	876.6429	879.6429	877.7143	875.1429	876.5714	871.2143
77	826.9286	838.6429	853.2857	853.5	866.5714	873.5714	883.7143	890.7857	900.9286	909.0	910.7143	906.5714	913.2143	908.3571	908.4286	905.2857	899.2143	894.3571	901.2857	890.2143	896.0	890.5714	890.1429	886.3571	882.7143	883.7143	877.6429	879.1429	882.6429	876.5	872.1429	870.6429
78	823.3571	833.7857	860.0	871.6429	894.7143	911.0714	928.5714	946.0714	961.7143	977.8571	987.2857	989.1429	987.6429	984.0714	982.5714	976.4286	966.9286	961.7143	953.7143	956.7143	964.8571	957.1429	955.5714	951.2857	949.7143	949.2857	949.8571	951.1429	945.8571	943.4286	941.7857	939.7143
79	825.5714	835.3571	859.4286	865.5	870.6429	874.2857	884.2857	900.0714	903.5714	909.2857	915.0	923.2857	914.6429	908.2143	915.7143	908.6429	904.9286	904.5714	901.7143	897.7143	894.0	892.2857	892.8571	889.0	887.0	889.0714	885.0	883.6429	881.4286	878.2857	877.0714	878.6429
80	826.4286	837.7857	857.4286	863.4286	864.4286	878.7143	881.8571	898.2857	904.0	913.0714	916.1429	920.7143	917.8571	916.2143	916.0714	912.7143	904.2857	902.5714	902.5	899.1429	901.2857	890.8571	892.5	891.4286	889.1429	890.5714	886.0	888.2143	887.4286	880.7143	882.1429	878.0
81	819.7143	840.2143	864.7143	865.6429	870.5	876.9286	884.5	894.2143	903.5714	915.8571	909.6429	916.0714	912.5714	917.9286	914.1429	906.4286	907.4286	902.0	903.0	895.0	894.0	892.4286	891.2857	892.4286	889.0714	885.6429	883.5	883.8571	880.2857	875.6429	874.2143	873.0
82	824.0714	840.3571	864.5	870.8571	865.7857	872.9286	880.3571	898.6429	904.7857	910.1429	919.1429	920.9286	914.6429	913.5	908.3571	910.2857	904.2857	900.3571	895.7857	896.4286	897.7857	895.7857	891.9286	886.9286	886.8571	887.0	884.2857	882.2143	883.7857	880.1429	876.5714	870.8571
83	825.0	843.9286	856.7857	860.2143	866.0	880.2143	885.0714	894.4286	906.7143	910.5	915.2143	921.7857	920.4286	919.0714	913.3571	910.2857	904.6429	900.5	903.7857	899.5	896.1429	891.4286	890.2143	889.0	890.7857	885.9286	884.9286	883.4286	883.4286	884.5714	874.2143	871.8571
84	826.9286	834.7857	855.2143	868.0714	870.4286	879.5714	892.4286	900.8571	909.2143	913.9286	916.5714	926.6429	917.5714	918.6429	916.4286	914.4286	912.0	900.8571	902.0	899.8571	901.5	897.1429	893.4286	889.5714	890.2143	892.1429	885.9286	889.0714	883.1429	881.5	876.4286	875.2857
85	825.0	844.4286	867.5	863.5	875.7857	882.2143	891.2143	902.2857	902.2857	914.7143	923.8571	925.5	924.4286	922.3571	920.5	914.2857	912.3571	903.5714	901.7857	902.7857	898.1429	898.0714	897.0714	890.3571	893.0714	891.5714	885.0	887.0714	884.2143	880.7857	880.0714	876.3571
86	823.2857	842.9286	860.5	872.7143	876.9286	876.1429	890.5	894.5	911.7857	915.3571	923.0	921.4286	920.9286	918.0	913.0714	915.7143	903.7143	903.8571	900.0714	904.0714	899.7143	892.3571	897.7143	887.7857	886.6429	892.2857	888.0714	883.5714	885.6429	880.7857	875.4286	869.7143
87	823.2143	851.4286	868.2857	878.6429	876.8571	881.4286	890.0714	901.0714	912.9286	917.5714	922.9286	924.1429	921.5	919.4286	923.0714	917.1429	914.9286	906.5714	903.5	902.3571	902.4286	901.5	899.9286	893.1429	885.2857	894.2857	889.5	889.3571	885.0714	882.8571	882.0	876.6429
88	824.7143	849.8571	868.1429	874.8571	877.9286	884.8571	889.3571	900.2857	913.7857	918.2143	918.4286	926.6429	922.7857	920.2143	922.7143	917.6429	915.7143	907.3571	906.2143	902.1429	906.1429	899.2143	897.1429	890.7143	888.7857	889.8571	885.7143	886.4286	886.3571	883.2143	882.0714	884.9286
89	830.0714	845.7143	870.1429	876.0714	869.2143	882.6429	895.5714	901.9286	914.2857	914.7143	922.4286	926.2143	920.7857	925.4286	917.4286	914.2143	909.1429	906.4286	906.0	900.8571	901.5	897.5714	896.5	890.8571	892.2857	891.4286	892.1429	888.7857	892.2857	884.0	887.4286	874.1429
90	826.0	845.6429	870.1429	878.5714	882.6429	890.8571	900.5	916.3571	923.7857	933.9286	930.7857	938.6429	932.0	937.0714	924.5	925.5	924.5714	921.1429	914.5	918.2143	917.2143	907.0714	907.9286	903.2857	901.9286	898.6429	897.3571	895.0714	893.2143	893.0	893.7857	885.2857
91	824.6429	844.7143	867.0	871.5714	876.2143	882.2857	893.3571	905.6429	912.2857	920.5714	924.9286	931.7857	931.1429	926.7857	923.2143	917.0714	908.6429	905.3571	907.6429	908.2143	904.0	901.0	898.7143	898.1429	896.5	894.3571	892.1429	889.9286	887.3571	887.0714	884.2857	874.7857
92	824.5	845.0714	868.1429	880.9286	879.0	889.2143	889.5	909.2857	917.9286	925.7143	933.5	927.2857	932.1429	934.0714	926.0714	922.4286	919.5714	912.3571	907.7857	909.7143	908.1429	902.5	900.0714	899.5714	897.6429	895.3571	897.9286	893.0714	891.0714	888.0714	885.5	880.2857
93	825.5714	840.5	864.1429	872.7857	874.2857	879.2143	887.0714	904.0714	909.0714	916.2143	916.4286	924.9286	923.6429	920.9286	920.0	914.8571	914.3571	909.6429	902.0	900.5714	901.7857	896.7143	892.7857	893.2857	898.8571	890.3571	885.2143	886.1429	884.1429	886.5	883.4286	872.4286
94	824.1429	839.2857	861.2143	880.0714	873.2857	888.5	894.5714	905.8571	907.6429	919.6429	924.5714	923.4286	923.5714	923.2857	919.0	918.2143	914.1429	908.4286	905.3571	911.8571	910.2857	898.1429	899.6429	896.9286	898.9286	892.4286	891.2857	889.5714	884.5	881.9286	885.0714	882.4286
95	827.6429	848.9286	873.7143	879.6429	882.4286	891.6429	894.2857	909.0714	922.4286	920.0	930.5	931.2857	928.4286	927.7143	927.7143	919.6429	916.3571	911.7857	906.4286	910.8571	909.5714	908.7143	900.5714	900.2857	896.7143	898.1429	890.3571	894.0714	889.0	887.0	889.6429	880.8571
96	827.4	846.0	868.6	876.3333	875.8	883.6	897.73334	903.86664	909.13336	928.5333	926.13336	930.73334	930.4	923.93335	925.3333	925.4667	915.73334	910.8	911.13336	908.8	912.86664	907.73334	902.13336	896.06665	898.6667	896.6	895.73334	892.86664	887.26666	888.4667	886.4	883.26666
97	828.0	834.0714	843.5	858.3571	872.2143	882.2857	891.7857	903.3571	904.7143	919.4286	922.0714	922.0	922.0	920.2857	917.5714	912.7857	910.0	905.1429	903.6429	896.6429	899.7143	897.0714	896.7857	896.2857	888.7857	891.7143	887.4286	887.7143	886.0714	883.4286	876.2857	874.5714
98	825.1429	835.0714	843.1429	855.8571	860.1429	873.9286	883.3571	887.4286	898.3571	904.0	906.0714	898.5	904.5	900.7143	909.3571	901.7143	895.1429	894.0714	893.7143	896.1429	889.7857	887.5714	887.1429	880.9286	884.4286	880.2143	878.2857	880.3571	877.0	875.0714	879.7857	867.5714
99	822.3571	831.5714	846.6429	860.9286	865.4286	872.9286	880.9286	894.0714	899.7857	905.0714	911.6429	911.6429	911.0	913.2857	903.9286	905.8571	899.2143	905.0	897.1429	899.1429	894.0	894.5714	894.4286	896.7857	896.1429	889.0714	896.7857	893.8571	902.2143	902.7857	896.2143	893.0
100	824.5	837.6429	846.5	854.8571	866.0714	872.2143	885.3571	892.0714	897.2143	903.2143	909.5	913.5714	911.2143	909.3571	904.7143	904.8571	900.8571	893.1429	893.0	892.7857	893.0714	882.6429	884.3571	891.0	887.9286	883.3571	879.6429	881.8571	878.2857	879.0	876.7143	870.3571
101	826.7857	834.0714	847.5	856.1429	869.8571	877.7857	888.5	900.9286	901.8571	910.0	916.0714	922.2857	917.7143	919.7143	917.7857	915.0714	906.2143	900.6429	897.0	902.0	904.5714	897.2143	895.2857	894.6429	891.0714	889.7857	885.5	886.2143	884.6429	886.9286	878.0714	875.5
102	829.3571	837.4286	851.7143	863.8571	864.0714	878.9286	890.1429	897.8571	905.7857	910.0714	915.7143	920.0714	919.2143	915.1429	913.2143	915.9286	899.7857	900.5	898.3571	898.9286	898.5	895.3571	894.8571	887.0	889.4286	887.0	885.9286	887.1429	881.5714	879.4286	876.8571	878.0714
103	832.0714	841.5	852.7143	856.7143	867.7857	875.2857	883.0	893.4286	902.0714	908.5	914.2857	912.6429	913.2143	912.8571	912.5	912.0	904.5	899.2857	900.2857	899.0	895.5714	892.2857	884.6429	883.6429	886.2143	887.0	888.5714	879.6429	880.0	875.5714	876.5714	871.1429
104	826.8571	837.0	849.5714	860.6429	868.0	877.8571	884.8571	890.8571	903.8571	915.5714	910.2857	916.7143	917.1429	916.5714	910.6429	912.5	905.6429	904.5	901.7143	903.4286	896.5714	894.7857	893.7143	888.2857	892.0	886.1429	890.0	886.6429	881.5714	883.5	884.6429	871.1429
105	825.9286	836.0	864.7857	864.9286	870.1429	877.8571	887.0	896.1429	903.3571	914.2143	917.5	924.2143	919.8571	918.8571	916.2143	911.9286	907.8571	904.2143	900.5714	900.8571	898.4286	896.8571	889.6429	887.1429	888.4286	884.2143	888.2143	885.2143	880.6429	884.1429	875.0714	869.5
106	823.4286	839.7143	854.0	862.5	867.9286	878.7857	888.3571	896.6429	908.9286	913.6429	917.7857	919.8571	916.2857	917.2857	918.9286	911.7143	905.7143	902.9286	899.2143	901.4286	892.7857	893.3571	897.1429	898.0	886.4286	889.4286	885.7143	884.9286	884.5714	879.4286	883.0	878.2857
107	829.6429	835.9286	855.7857	863.2857	870.7143	879.5714	888.9286	898.2143	905.0714	908.7143	911.8571	919.1429	916.6429	917.2857	910.9286	908.0714	907.0714	900.8571	903.2143	899.8571	889.5714	897.6429	897.3571	890.5	889.6429	889.2857	887.7857	886.3571	879.3571	882.5714	879.3571	870.8571
108	827.2143	837.6429	857.0	868.6429	871.0714	880.6429	893.2857	899.3571	899.0714	910.2857	913.5	914.7143	916.7857	914.8571	911.2143	904.5	909.1429	902.5	898.2857	897.7143	893.7143	897.5	895.6429	881.8571	884.7143	887.9286	884.7857	885.2857	880.8571	878.4286	877.9286	877.7143
109	824.6429	842.9286	858.5	870.0	867.3571	874.9286	886.7143	900.0714	903.2857	910.0	921.7143	918.7143	916.6429	911.0	914.5	913.6429	903.0714	905.0714	906.9286	903.3571	892.6429	898.8571	893.2143	894.1429	887.6429	892.2857	891.9286	889.2857	885.6429	883.7143	881.5	874.1429
110	825.2857	842.5	861.4286	866.5	869.4286	878.7143	890.0714	897.4286	906.0	912.3571	913.7857	916.2143	921.0714	914.5	915.5714	910.5	905.6429	904.0714	900.0714	902.9286	895.8571	895.6429	893.6429	890.0714	889.3571	891.5	887.5714	888.6429	882.0	879.0	879.0	875.7143
111	822.5714	839.7143	852.5	874.9286	872.7143	888.0	889.8571	902.7857	908.6429	913.8571	922.9286	923.2143	922.5714	923.5	915.2857	916.4286	915.4286	906.7143	909.3571	897.6429	906.2857	897.7857	898.2857	896.7143	895.8571	891.8571	894.6429	889.5	885.7857	883.7143	883.9286	874.5
112	825.9286	846.0714	860.2857	867.2143	868.0	882.0	888.0714	898.1429	904.8571	909.2857	916.2857	918.0	915.8571	915.6429	918.0714	913.6429	912.6429	900.0714	897.4286	900.8571	895.0714	898.0	891.0714	890.6429	890.9286	889.5714	886.3571	888.1429	884.6429	878.0	880.4286	875.3571
113	827.6429	835.9286	857.7857	863.3571	868.7857	884.1429	894.0714	901.5	908.6429	913.9286	918.0714	920.6429	920.0	920.0	916.5	916.0	915.5	904.8571	905.5714	906.2143	900.7143	902.5	897.0714	893.2857	891.3571	888.5714	887.7143	889.2857	885.4286	884.5	879.2143	880.7143
114	826.0714	840.2143	856.8571	873.2857	878.2857	888.5	895.0	905.6429	917.7857	923.9286	926.8571	929.3571	928.7857	928.7143	923.0714	927.2143	922.7143	910.6429	908.8571	911.3571	904.9286	906.7143	901.5	902.1429	897.9286	893.4286	896.6429	894.4286	894.9286	891.4286	885.9286	884.7143
115	829.2857	845.0714	863.4286	867.6429	872.4286	881.7143	896.7857	903.3571	910.3571	921.0714	925.7143	922.5714	928.0714	921.4286	918.4286	919.2857	916.7143	907.5	912.4286	906.7143	907.7857	901.6429	896.5	895.9286	891.3571	892.7857	892.5714	896.1429	897.2143	887.5	885.6429	877.8571
116	826.1429	847.5	878.2143	879.6429	880.9286	891.4286	900.3571	916.3571	922.5	929.5714	934.9286	945.7857	942.0	937.0714	936.2857	933.2857	931.2857	922.2143	922.2143	920.8571	924.9286	914.7143	911.2143	907.0714	907.0714	907.7143	905.8571	905.2857	903.7857	897.6429	897.2143	891.7143
117	827.7857	845.0	859.2143	869.1429	879.5714	888.2143	896.2143	911.2857	916.6429	926.2143	931.5714	923.2143	928.4286	926.1429	922.3571	920.7143	919.7143	911.2857	911.5	903.8571	905.8571	908.3571	900.5	900.9286	897.5714	896.1429	895.7143	898.2857	891.0	890.9286	885.5	883.0
118	825.4286	843.6429	860.3571	872.5	879.7143	880.9286	899.3571	909.8571	913.9286	922.0714	928.7143	933.0	931.0714	928.5714	923.2857	926.9286	921.4286	916.5714	913.3571	910.2143	906.9286	906.8571	900.2143	898.9286	897.1429	897.1429	894.7143	897.1429	891.7857	890.1429	885.2143	885.7857
119	828.9286	844.7857	867.7143	882.5714	881.7857	886.4286	893.9286	907.1429	915.8571	915.9286	928.2143	929.5714	930.6429	923.5	923.2857	919.5714	920.8571	912.7857	909.0	909.5	905.2857	906.7857	900.4286	901.6429	895.5	896.8571	894.5	893.0	893.1429	887.8571	890.4286	884.4286
120	831.6667	848.6	861.5333	876.8	875.93335	884.6667	901.06665	909.4667	919.6667	926.2	931.6	932.93335	929.2	933.6667	928.4	924.6	919.5333	917.93335	910.06665	914.73334	906.93335	908.06665	907.06665	905.73334	900.4667	898.06665	897.0	899.13336	896.06665	891.5333	888.4	886.6
121	828.9286	835.7143	851.1429	864.0	880.2143	887.7857	904.3571	913.3571	920.4286	933.5714	932.6429	938.5714	938.8571	937.1429	934.4286	928.2143	919.0714	920.0	918.7857	917.0	914.0	910.7143	907.5	902.7143	896.0	900.2857	897.7143	894.0	894.2143	894.3571	885.0	878.6429
122	826.5	830.4286	851.0	858.1429	872.7143	883.0714	897.0714	901.9286	916.3571	926.9286	933.4286	930.8571	933.2143	925.7857	923.5714	923.5714	911.8571	902.6429	909.9286	905.7143	902.9286	902.1429	898.6429	898.0	895.4286	890.7143	898.8571	889.6429	888.2857	883.5	875.5714	877.8571
123	830.9286	833.0	850.3571	866.6429	871.0714	880.7143	897.2143	905.9286	912.7857	921.8571	929.5714	925.5714	932.7143	929.1429	921.0	920.7143	922.2857	912.9286	904.7143	903.7857	903.9286	898.7143	899.2143	892.8571	899.3571	891.6429	889.4286	892.5	888.7143	881.2143	880.2143	871.0
124	823.6429	834.5	851.7143	864.0714	875.1429	887.5714	906.3571	910.4286	927.0	925.1429	938.9286	935.1429	937.6429	934.5	930.4286	932.7143	922.5714	917.7857	914.3571	910.8571	911.3571	905.7143	903.5	901.7143	900.2857	900.0714	895.5	893.3571	889.2143	890.5	882.3571	876.7857
125	830.0	833.9286	850.8571	858.3571	877.4286	885.7143	904.6429	914.4286	921.5	932.3571	935.5714	938.5714	937.4286	934.4286	931.6429	925.5	919.6429	919.0	917.5	914.2857	913.3571	904.7857	904.0714	902.1429	896.0714	902.4286	908.7143	896.3571	889.2857	892.8571	887.2857	882.2857
126	830.6429	836.8571	845.9286	862.9286	871.4286	884.3571	894.3571	911.9286	916.2143	928.3571	929.6429	936.2857	932.4286	936.4286	926.4286	924.0714	912.1429	914.9286	911.0	913.0714	910.0714	907.5	900.0714	891.5	900.5	893.7143	895.0714	894.9286	885.7857	888.2857	883.8571	879.2857
127	829.6429	845.1429	855.1429	868.6429	892.6429	908.4286	924.2857	938.8571	950.8571	961.0	974.2857	975.2143	972.3571	970.4286	961.7143	954.2143	956.6429	945.5	944.3571	948.0	941.1429	940.0	935.7857	926.0	932.2857	933.0714	928.8571	924.7143	919.2857	914.9286	911.9286	905.9286
128	823.2857	837.0714	848.3571	861.7143	874.5	890.8571	900.7143	908.7143	920.2857	933.3571	930.1429	933.5	934.0	929.3571	925.0714	927.3571	915.0714	911.5	907.6429	912.0714	907.0714	908.7143	902.2857	901.0	898.2143	901.7143	899.1429	895.2143	891.6429	887.2857	884.3571	881.2857
129	825.9286	836.9286	856.2857	862.3571	872.0	887.3571	898.0714	909.2857	918.3571	923.0714	929.2143	928.8571	929.3571	919.9286	921.9286	918.5	912.4286	909.0714	909.8571	908.0	905.0714	902.9286	901.4286	892.9286	891.0	891.7857	895.4286	894.0	887.0714	885.0	882.5	877.0
130	830.3571	841.2143	856.5714	860.0714	872.7857	877.3571	902.5	902.0	919.0	917.2857	929.3571	932.4286	927.0714	924.5	925.5714	919.9286	913.7143	917.1429	910.2857	908.1429	902.0	901.2857	900.0714	896.4286	889.3571	890.2143	891.5	892.5714	891.3571	882.6429	887.7143	874.1429
131	817.7143	840.0	858.0714	865.0	876.0714	876.4286	896.7143	905.5714	915.3571	925.0714	929.9286	928.6429	926.7143	924.0	923.6429	918.9286	914.5	910.0	909.3571	907.2857	903.9286	901.2857	895.5714	898.0714	896.0714	895.7143	895.7857	891.1429	887.0	885.7857	879.2143	878.9286
132	825.2143	838.8571	856.0714	858.6429	873.7857	887.9286	900.3571	904.5	922.8571	923.6429	928.3571	927.5	932.5	921.3571	925.8571	921.0714	917.9286	913.4286	909.0714	908.0	905.2143	903.9286	898.3571	893.7857	891.9286	895.1429	889.2143	896.5714	890.0714	886.5714	885.6429	880.0714
133	827.4286	847.5	861.2143	865.2143	873.5	893.5714	896.5714	917.7857	922.0714	932.9286	933.2143	935.7857	935.1429	935.4286	934.2143	926.7857	922.4286	920.6429	912.5714	914.7143	911.3571	910.5	903.8571	904.3571	901.2143	900.7857	897.7143	898.0	891.8571	890.0714	889.0	878.7143
134	832.3571	845.0	863.8571	861.5	871.4286	885.0714	899.2857	908.7143	916.8571	920.4286	926.1429	933.7143	932.8571	923.3571	925.7857	923.3571	918.3571	916.5	908.5714	908.4286	903.2143	905.5	900.0	898.6429	896.0714	895.7143	892.0714	892.4286	888.5	882.2857	883.0	883.5
135	825.5714	843.8571	858.7143	865.3571	885.0714	893.3571	912.1429	923.2143	932.1429	941.0714	950.7143	954.1429	949.0	944.6429	940.4286	942.0	930.7143	929.2857	923.5	925.5714	919.0	914.5	912.5714	911.9286	903.2143	904.8571	907.8571	903.7143	903.3571	896.2857	893.6429	887.2143
136	827.1429	847.7857	855.2143	861.8571	875.4286	888.5	900.5714	915.0	918.2143	924.3571	931.0714	930.4286	933.1429	929.1429	927.2857	920.2143	916.8571	908.7143	913.0	915.3571	907.3571	904.4286	905.8571	898.7143	898.3571	895.0714	894.0714	887.5714	888.4286	886.3571	887.7857	878.9286
137	833.5	841.1429	853.2143	867.7857	877.5714	890.0714	901.4286	916.3571	918.2143	927.6429	932.0714	936.0714	935.7143	932.0714	924.5	924.6429	917.0	915.2143	911.4286	909.4286	900.0714	906.0714	902.8571	898.6429	895.7857	897.9286	888.8571	887.5	888.3571	885.1429	887.1429	879.1429
138	829.5	841.9286	856.1429	866.2857	878.7143	887.7857	899.5	910.0714	917.8571	926.5714	929.0714	933.9286	929.7857	926.0	923.9286	921.5714	918.3571	910.0714	905.8571	905.0	906.5714	904.3571	898.9286	897.1429	899.0714	892.7143	895.1429	891.4286	886.1429	888.5714	884.1429	881.7143
139	832.3571	849.0714	863.9286	864.0714	877.4286	896.5714	905.5714	913.6429	924.4286	932.9286	936.9286	938.2143	942.2143	942.2857	936.1429	932.0714	926.0714	918.5	919.7143	914.5	913.5	916.9286	906.5714	911.0714	905.5714	899.1429	905.4286	905.3571	900.7857	892.6429	895.1429	889.1429
140	826.6429	847.5	864.4286	870.3571	880.5	888.6429	902.6429	909.0	922.5714	926.2857	934.4286	938.7143	938.3571	936.7143	934.9286	930.8571	922.5714	918.7857	916.7857	917.5	906.0714	911.6429	902.4286	903.3571	902.7857	899.2857	901.5	897.0714	894.7143	890.4286	888.5714	879.3571
141	832.6429	851.7143	865.5	877.8571	894.0	908.6429	922.2857	942.0714	947.9286	957.5	968.4286	961.9286	966.6429	965.5	963.2857	953.2143	946.4286	939.6429	943.6429	937.9286	938.2143	932.0714	932.2857	924.5	926.1429	916.0	917.1429	917.0714	911.0714	910.1429	903.0714	901.3571
142	829.5714	849.8571	867.1429	872.2143	893.5714	896.5714	916.1429	920.7143	934.0714	940.5	948.8571	952.0714	949.5714	947.0	944.7143	937.5	932.3571	927.5714	927.0	923.2857	920.2857	916.0714	917.1429	913.9286	907.2857	910.2143	905.6429	909.2857	900.7143	896.1429	892.6429	890.0
143	829.5	852.5714	875.3571	889.3571	903.5714	921.0	941.3571	953.6429	971.3571	979.0714	987.0714	988.7143	987.8571	983.9286	977.0	973.5714	963.8571	956.2143	956.5	952.7857	951.8571	947.0	940.5	941.3571	935.0	934.0714	931.4286	930.8571	925.0714	919.1429	914.9286	912.4286
144	831.13336	847.6667	860.6	874.6667	888.3333	898.4667	909.6667	919.4	928.93335	940.6667	941.86664	945.2	942.6667	939.2	943.6667	935.26666	923.3333	927.93335	924.93335	920.6	915.26666	914.73334	911.6	906.8	902.5333	902.6	902.4	902.8	903.6667	895.73334	894.26666	883.8
145	827.2143	837.1429	848.7143	859.5714	872.7143	885.4286	897.8571	908.1429	916.2857	919.4286	924.6429	922.7857	924.1429	919.0	918.4286	919.7857	912.3571	906.3571	910.9286	903.7857	902.2857	898.1429	891.1429	891.8571	892.0	892.4286	887.0	884.4286	882.8571	886.3571	881.2143	876.7857
146	828.7143	841.0714	847.8571	863.2857	870.6429	880.0	890.1429	896.1429	908.0	912.5	916.2143	921.1429	918.2143	914.5	916.4286	910.8571	908.2857	904.5714	900.3571	900.5	902.0	897.0	891.2857	889.8571	888.2857	884.5	889.3571	883.1429	879.9286	879.0714	873.5714	868.2143
147	829.2143	842.3571	855.2143	865.5714	874.5	887.0	898.6429	908.1429	911.8571	921.4286	929.5714	934.0714	935.7857	928.0714	924.0714	920.9286	918.0714	909.2143	907.5714	911.5714	907.1429	906.4286	902.2143	890.0714	895.1429	893.5	896.2143	888.7143	890.2143	882.7143	882.5714	879.5714
148	826.7857	838.7857	848.0	868.8571	872.4286	885.2143	896.1429	904.6429	921.1429	919.5	923.5	930.5714	927.9286	929.7143	923.8571	917.0	915.2143	912.7143	909.2143	902.5	906.2857	902.6429	905.4286	895.2143	895.7143	890.2143	890.6429	893.5	887.2857	880.0	885.7143	875.9286
149	831.0	843.6429	848.8571	864.5	885.0	890.4286	904.0714	909.7143	922.7857	925.2143	932.8571	935.9286	932.5	927.1429	929.4286	927.0714	922.1429	913.5714	911.5	908.2143	905.3571	906.9286	903.5	901.0	897.1429	895.3571	895.5	891.8571	893.7857	887.7857	881.7857	879.4286
150	831.0714	839.5	856.6429	871.1429	881.1429	888.4286	900.2143	908.4286	919.4286	930.8571	936.2143	932.0	933.8571	930.0	931.6429	929.5714	918.1429	915.4286	911.8571	914.0714	911.3571	903.0	907.3571	900.5714	898.7857	898.2857	896.6429	890.9286	889.7857	893.4286	882.5714	880.5714
151	828.5714	843.6429	860.5714	879.2143	889.8571	904.4286	926.6429	934.8571	948.1429	956.6429	961.2143	963.8571	969.5	962.5714	960.9286	956.9286	948.5714	949.0714	938.0714	940.5714	938.2143	934.0	930.7143	923.7857	922.5714	918.5	923.5	917.6429	921.2857	910.7857	906.5714	902.1429
152	832.8571	839.6429	859.3571	869.7143	879.2857	887.8571	902.1429	908.7857	917.1429	922.0714	929.2857	937.6429	933.0	928.7143	927.4286	922.7143	918.2857	911.2143	913.9286	913.9286	908.0714	907.7857	901.9286	896.3571	894.5	897.1429	890.8571	889.5	891.4286	884.1429	881.8571	884.2143
153	830.0	847.5	863.4286	876.5	881.0	896.6429	904.4286	913.3571	928.8571	933.6429	936.4286	937.4286	934.9286	932.9286	939.1429	929.3571	919.3571	923.6429	916.7857	916.1429	906.7857	905.7143	904.0	905.8571	899.9286	900.3571	899.0	895.0	892.6429	891.0	888.9286	884.2143
154	829.9286	843.2857	858.0714	868.7857	878.2143	885.3571	902.5714	912.5	921.8571	923.7857	930.0	929.6429	929.3571	927.5714	926.2857	920.1429	920.1429	910.5714	901.5714	903.0714	904.5714	905.2143	896.0714	898.1429	894.7143	892.6429	892.8571	891.7143	884.8571	882.7143	879.7857	874.6429
155	829.6429	850.7857	864.5714	869.5	877.4286	891.0714	901.3571	909.9286	926.7857	928.4286	931.7857	935.2857	935.1429	931.2143	928.2143	923.3571	918.7143	911.3571	913.6429	908.7143	911.7857	907.7857	902.8571	899.0714	893.7857	898.5714	895.2857	895.7143	891.5	886.5714	882.9286	882.7857
156	831.2857	851.8571	858.9286	874.8571	880.6429	890.5714	905.7143	910.2143	919.7857	928.6429	933.2857	932.7143	934.4286	928.8571	928.4286	923.8571	912.8571	917.2857	909.0714	908.5714	906.5714	904.0	902.5	895.4286	892.9286	895.9286	893.7857	893.2857	895.0714	883.5	885.5	880.7857
157	830.9286	848.2857	858.3571	878.7857	892.2143	908.5	926.5	935.6429	951.6429	961.5	966.4286	971.0714	972.5	964.7857	956.0714	957.7857	950.5714	936.7857	936.7143	932.7857	937.5	929.6429	925.5714	926.5714	924.0	916.5	914.9286	912.0714	911.7143	912.4286	901.5	899.7857
158	830.1429	851.7857	865.2857	877.0	882.0	888.2857	900.0714	912.3571	918.2143	924.3571	934.7143	933.0	925.6429	930.4286	924.9286	923.0	921.8571	912.5	911.8571	907.5714	907.2857	903.6429	903.2857	891.2857	894.9286	895.7857	895.5	893.4286	890.0	888.3571	882.3571	882.0
159	829.7143	850.2857	863.1429	873.7143	880.2857	894.7857	904.5	916.0	922.0	930.5714	937.4286	934.0	934.5	931.0714	929.4286	925.8571	922.5	916.5	915.6429	911.2857	912.1429	910.6429	905.0	906.2143	899.9286	901.0714	897.7143	894.1429	892.5	891.7143	886.0	878.7857
160	828.0	845.4286	865.5714	868.2143	892.4286	898.7857	913.6429	924.9286	936.3571	950.0714	955.0714	959.6429	955.0714	959.6429	951.5	940.9286	938.5714	930.7143	931.2143	930.6429	929.0	927.7143	921.0714	919.1429	914.7143	908.5714	908.5	908.5	905.7857	901.5	898.5714	888.2143
161	830.5714	845.7857	859.2143	872.7143	884.1429	904.5714	915.7143	933.0714	938.5714	949.9286	951.9286	955.7143	954.6429	952.9286	949.7857	942.2143	939.0714	932.3571	932.7857	932.2857	925.3571	927.5714	919.6429	919.2143	917.9286	914.8571	916.6429	905.7857	910.3571	905.2143	900.7143	892.2857
162	836.6429	853.4286	866.0	874.2857	880.4286	887.2143	902.5	913.3571	920.9286	925.7857	928.1429	931.7857	933.6429	930.0	925.5	921.2857	919.1429	913.7857	915.0	907.3571	907.5714	904.5714	898.6429	895.8571	892.6429	894.3571	894.2143	896.5714	888.4286	883.2143	878.5714	883.9286
163	829.5	850.9286	864.3571	878.1429	885.5714	910.7143	923.6429	932.5714	946.9286	959.1429	959.9286	965.7857	965.4286	963.2143	960.1429	951.0	946.7857	935.3571	942.5714	933.8571	934.7143	930.7857	927.5714	923.4286	923.6429	916.8571	918.7857	917.2857	915.0714	909.0714	908.9286	900.2143
164	833.7857	851.5714	866.9286	875.2143	884.0	896.3571	910.6429	916.7143	925.8571	933.0714	941.6429	938.3571	936.0	936.5714	932.2857	929.2857	926.2857	918.5	916.0	917.1429	912.2143	908.7143	902.7857	905.2857	899.7143	897.5	896.4286	896.5714	891.9286	892.1429	889.3571	881.2143
165	831.9286	847.0714	857.7857	873.8571	878.5	886.5	902.0	909.7143	918.6429	924.4286	929.8571	934.8571	930.1429	928.9286	929.0714	928.7857	924.4286	914.8571	913.1429	910.0	914.7857	907.9286	900.7143	897.0	899.5714	895.8571	896.6429	896.2143	892.5714	890.8571	887.0714	880.0714
166	834.4286	847.6429	869.5714	878.3571	885.3571	896.8571	903.6429	919.9286	923.0	928.7857	941.6429	934.7857	941.7857	929.2857	933.2143	934.5714	928.0	922.7143	921.5714	918.4286	912.3571	913.3571	904.0714	906.7857	910.1429	902.7857	899.9286	904.4286	896.0	890.3571	885.5714	880.9286
167	834.8571	850.6429	872.8571	878.0714	889.8571	896.6429	899.8571	913.3571	925.5714	929.7143	942.0	946.2857	935.3571	938.7143	935.0	938.1429	931.0	921.0	921.0	917.6429	910.7857	918.3571	910.3571	906.0714	903.2857	900.3571	901.1429	894.6429	892.5	894.0	890.7143	874.5714
168	837.86664	850.06665	867.0	878.0	889.5333	899.4667	917.6	921.13336	932.2	950.4	951.13336	950.6	949.86664	948.3333	944.93335	943.6	934.06665	926.3333	928.0	922.6667	922.73334	919.13336	916.2	910.13336	913.13336	911.3333	905.4667	905.8	899.6667	899.2	896.93335	890.8
169	826.5714	841.2143	857.1429	871.0714	880.5714	900.6429	912.1429	919.7143	928.5714	930.7143	934.6429	936.2857	936.0714	934.5	933.2857	929.3571	923.2143	918.2857	913.6429	913.3571	910.1429	909.4286	903.4286	899.7143	897.4286	895.7143	897.5	895.2143	892.8571	890.1429	885.0714	880.6429
170	837.6429	843.7143	858.5	861.2143	878.7143	885.5714	898.0714	907.6429	915.3571	920.6429	921.7143	925.7143	922.8571	923.7857	922.0	916.0714	910.9286	908.7143	902.7857	902.9286	901.0	900.2857	892.9286	891.3571	888.5714	888.9286	893.1429	883.7857	879.7857	879.5714	876.6429	873.7143
171	838.4286	850.2857	862.7857	871.1429	883.2857	897.0714	909.6429	911.9286	921.8571	932.5	938.1429	942.2857	938.5714	940.3571	935.0714	931.8571	921.7143	921.4286	920.4286	915.5	916.8571	899.1429	909.5	903.5714	906.4286	904.7143	902.7143	902.3571	890.6429	889.9286	889.2857	885.7143
172	828.5	844.5714	859.4286	867.6429	881.5714	887.1429	898.0	909.3571	914.6429	925.2143	925.5	928.7143	925.2857	921.6429	924.5714	919.5	913.2143	912.2857	906.7857	908.7857	903.4286	901.7143	902.6429	899.1429	895.6429	891.8571	892.0	890.8571	888.2857	882.1429	877.0	880.2143
173	832.5714	849.5714	861.6429	881.8571	888.3571	899.6429	917.7143	923.0	938.1429	947.0	954.1429	954.5	949.0	954.8571	947.4286	937.0714	933.0	930.1429	925.5	924.0	924.3571	918.7143	917.0714	914.7857	910.7857	908.4286	909.7857	906.3571	901.2143	900.7857	890.7143	889.2143
174	835.9286	845.7143	868.7857	877.0714	888.7143	899.7857	914.2143	925.5714	930.7143	947.2857	946.7143	949.7143	949.1429	947.5	940.6429	937.1429	927.7857	924.7857	924.0714	921.0	917.3571	917.8571	913.0	909.2857	906.0	909.1429	900.5	900.5714	898.6429	899.2857	888.2857	886.0714
175	833.2857	851.0	869.0714	871.8571	884.7857	897.3571	919.9286	922.5714	935.2857	938.4286	944.1429	944.0714	943.4286	941.0714	940.7143	935.2857	928.7857	925.7857	924.3571	923.2143	920.3571	914.0	911.7143	909.2143	907.0714	902.4286	903.7143	902.5	896.7857	895.1429	890.0	886.6429
176	829.8571	853.8571	868.2143	877.6429	883.0714	900.3571	909.4286	916.9286	929.7857	931.0714	943.1429	945.2143	941.6429	940.0	938.0714	930.2857	922.4286	920.0714	921.2143	916.3571	911.7143	911.8571	906.4286	900.7143	907.5	900.9286	905.6429	894.7143	896.2143	888.3571	890.1429	884.2857
177	831.8571	854.7857	868.9286	874.5714	884.8571	902.5	912.7857	922.2857	932.4286	939.6429	943.9286	948.7143	941.2143	943.5714	944.7857	931.0714	924.5714	923.5714	918.9286	918.7857	919.5714	912.2143	907.4286	902.9286	903.9286	900.0	903.7143	895.9286	891.2857	893.0	888.2857	886.0
178	835.5	844.7857	873.0	879.1429	882.1429	898.5714	911.1429	917.8571	928.7857	932.8571	938.4286	936.6429	939.5714	938.2143	934.0	935.0	926.7857	919.3571	918.8571	916.2143	911.0714	914.0714	901.0	903.0714	908.1429	904.2857	900.2857	901.3571	893.7857	893.0	892.4286	880.2857
179	834.0714	855.7143	865.9286	876.6429	886.9286	897.3571	917.7143	924.2143	930.5	935.2143	945.9286	946.5	940.2857	942.7857	939.7857	932.9286	924.3571	926.7143	920.2857	916.2143	915.2143	913.6429	908.8571	904.3571	902.3571	908.6429	906.6429	897.3571	896.5	894.8571	890.1429	885.7143
180	831.7857	850.4286	866.2143	876.4286	886.5	900.2857	911.8571	916.8571	928.1429	934.1429	946.0714	942.0714	942.7143	936.2143	936.2143	930.4286	923.0714	922.6429	916.2857	917.2857	915.9286	913.6429	906.4286	903.7143	903.7143	903.1429	899.7857	898.1429	891.7857	891.7857	883.8571	881.7857
181	835.6429	851.3571	868.5714	878.6429	897.2143	901.6429	917.3571	922.1429	933.3571	937.7857	949.7857	943.9286	947.9286	941.5714	937.1429	938.8571	929.4286	924.0714	925.5	923.3571	918.6429	914.9286	908.5714	914.7143	904.8571	899.0	903.2143	894.6429	896.6429	897.9286	896.4286	886.2143
182	833.5714	851.4286	870.6429	880.6429	889.5714	893.2857	913.3571	922.5714	927.8571	936.2143	948.0714	939.8571	946.5	942.7857	937.5	937.1429	925.1429	924.4286	916.2857	921.7143	914.1429	913.1429	908.5714	905.5714	906.5714	906.8571	903.1429	899.5	895.7143	891.7857	892.1429	885.0714
183	836.8571	853.0714	879.1429	884.2143	893.7143	902.8571	918.7143	923.0714	938.9286	942.5714	947.7857	947.5	951.4286	948.5	940.3571	937.9286	933.4286	927.9286	922.1429	923.5714	920.0	916.2143	916.2143	908.5	908.7143	906.8571	902.9286	902.7143	898.2857	899.8571	891.0714	884.2857
184	837.8571	854.9286	878.5	879.7143	889.5	908.5714	926.3571	930.8571	939.6429	952.0	957.5714	959.2857	955.5	954.7857	953.7143	947.0714	940.7857	935.5	931.0714	931.2143	932.8571	926.2143	917.5714	914.2143	914.5	911.4286	907.6429	909.4286	904.4286	903.2857	900.8571	892.5
185	832.2143	851.5	871.7857	879.4286	899.0714	908.8571	919.5	931.3571	941.3571	944.3571	952.8571	960.4286	957.9286	954.5714	945.8571	942.0714	937.2143	929.4286	928.2143	928.0	925.7143	920.7143	916.8571	914.6429	911.7857	907.7143	910.0	910.2143	904.2143	899.5	894.0	885.9286
186	840.0	856.7143	878.9286	884.7857	895.2143	901.5714	916.0714	931.7857	931.5	950.0714	953.4286	952.5714	950.7143	948.7143	949.2857	937.7143	930.4286	926.3571	924.5	928.2143	925.4286	919.6429	917.8571	912.5	912.3571	909.5	906.8571	900.1429	901.1429	896.1429	892.8571	890.7857
187	833.5	858.0714	873.9286	883.5714	895.7857	904.7857	916.2143	920.1429	936.0	939.1429	946.0	950.5714	949.0	948.0714	943.2143	939.4286	935.2143	924.1429	927.3571	927.0	921.6429	913.1429	913.2857	907.6429	906.9286	905.5	904.4286	906.0	899.7143	895.5	884.8571	888.2143
188	840.2143	863.3571	878.0	888.6429	899.4286	906.4286	922.1429	929.8571	937.4286	951.3571	949.6429	955.8571	951.1429	950.2857	944.9286	943.4286	933.5714	924.2143	925.2143	923.4286	920.0	921.2143	915.7857	917.1429	914.4286	913.7143	906.9286	905.7143	901.4286	900.5	895.0714	890.2143
189	836.8571	858.6429	881.9286	892.2857	901.9286	908.1429	915.7143	930.2143	942.5	947.1429	961.2857	961.6429	959.5714	955.4286	952.5714	945.7143	947.3571	940.1429	929.5714	930.8571	931.9286	921.1429	918.9286	920.2143	915.9286	910.8571	908.2857	912.2857	906.5	902.8571	898.0	893.2857
190	839.9286	855.1429	879.1429	888.3571	896.7143	913.1429	921.0	932.7857	939.2143	943.2143	954.0	950.2143	959.0	949.9286	944.1429	940.3571	936.0714	934.6429	932.1429	920.5	920.2143	915.2143	920.1429	910.0714	913.4286	900.3571	908.5	902.3571	906.2857	899.7857	889.7143	888.5714
191	838.6429	863.9286	882.2857	890.4286	898.8571	910.8571	924.5714	926.7857	939.7857	953.9286	951.7857	956.9286	946.9286	953.3571	948.6429	946.1429	938.5714	930.4286	927.3571	926.0714	924.5	918.0714	912.2857	913.7143	913.3571	912.4286	909.8571	909.3571	896.6429	895.2143	899.7857	882.5
192	842.26666	863.06665	882.4	895.2	903.4667	917.13336	936.86664	937.4667	946.2	961.86664	969.2	973.3333	966.5333	962.2	959.6667	958.0	943.2	940.26666	936.13336	935.8	930.4667	925.86664	927.3333	920.4667	920.26666	917.6667	917.86664	911.26666	910.3333	899.13336	904.26666	896.8
193	835.1429	847.8571	877.7143	903.7143	916.5714	903.5714	916.0714	928.7143	936.9286	947.4286	950.5	954.8571	947.9286	943.6429	945.2857	937.3571	932.2143	927.3571	920.7857	925.5714	919.1429	915.9286	908.7143	905.4286	908.2143	905.2857	905.0	902.7857	899.0	897.8571	901.4286	885.5
194	826.2143	853.7143	875.5	894.7143	906.7857	900.0714	906.0	909.5	922.2143	930.9286	928.7143	935.4286	930.0714	929.8571	930.5714	923.0	916.2143	908.0	912.0714	907.8571	906.7143	902.5	901.3571	897.2857	899.7143	890.5	894.5	892.0714	888.1429	887.3571	887.2857	880.5714
195	833.0714	854.4286	881.9286	902.0	907.7143	899.6429	908.5	914.0714	921.9286	926.4286	936.1429	933.2143	929.2857	939.4286	925.0714	923.5	920.6429	920.7857	913.4286	905.2143	905.4286	907.5714	896.5	898.2143	900.8571	893.0714	889.5714	893.4286	890.5	887.3571	884.2143	877.7143
196	830.9286	853.3571	882.2143	900.4286	912.2143	899.7143	903.5714	912.5714	922.6429	928.7857	933.2857	933.0714	933.2143	931.0714	933.7143	928.1429	919.8571	911.0	913.0714	913.5714	912.7143	899.0714	897.9286	896.6429	896.8571	896.6429	893.1429	892.5714	889.0	887.4286	883.4286	878.0
197	835.6429	853.7857	886.5	902.4286	915.9286	898.9286	914.5	918.7857	926.8571	932.6429	938.7857	939.5	939.0	934.4286	934.5	928.0714	922.1429	916.2143	921.7857	916.0714	911.1429	907.7857	907.1429	901.4286	900.1429	900.8571	895.7857	893.3571	891.5	894.5714	889.7143	883.1429
198	834.9286	861.6429	886.0	907.0714	916.7857	902.5714	912.5	919.9286	926.0	930.6429	933.0714	938.7857	935.2857	940.2857	933.7857	934.1429	922.7143	922.7857	915.5714	916.0714	909.6429	908.5714	905.5714	903.7857	904.0714	903.0714	899.8571	900.5714	890.2857	889.2143	889.7857	883.4286
199	835.0714	862.3571	891.3571	913.1429	920.2143	914.5714	920.7857	923.1429	939.5	945.3571	949.7143	949.1429	948.9286	945.5	939.8571	938.0	937.1429	926.3571	925.7857	929.2143	918.4286	916.4286	912.2143	908.0	913.0	907.0	906.1429	908.4286	900.0	900.5	893.8571	890.6429
200	839.2857	860.4286	890.1429	912.3571	919.5714	905.4286	914.2857	921.4286	927.7143	933.0	938.7143	942.2857	938.2143	934.7857	931.4286	932.2857	924.6429	918.3571	918.2143	917.2143	908.1429	909.0714	904.7143	897.3571	896.5714	898.8571	898.0714	899.9286	890.2143	891.2857	890.5714	880.4286
201	838.7143	861.8571	894.1429	917.4286	922.9286	907.2143	915.3571	918.7143	925.0	935.0	939.2143	947.7857	944.2143	935.3571	932.5714	927.4286	927.0	916.7143	913.7857	919.2143	913.7143	906.7857	901.4286	904.7143	901.4286	903.7857	897.8571	898.2143	891.3571	889.0714	889.2143	878.0
202	835.6429	865.5	895.7857	914.7143	922.5	906.5	917.4286	921.7857	927.1429	929.5714	943.0714	939.2143	939.8571	941.0714	934.2857	930.2857	929.3571	919.1429	918.1429	916.2143	912.7857	909.3571	908.7857	901.8571	896.4286	896.0	900.6429	901.8571	895.6429	888.6429	891.7857	883.5714
203	834.6429	859.7143	893.0714	914.6429	929.5714	906.8571	916.7143	925.5	939.2143	939.5	941.9286	950.4286	945.0714	942.6429	936.5	935.2857	929.8571	922.5714	923.5714	923.3571	915.1429	914.8571	907.7857	905.2143	899.5714	901.1429	899.5	905.7857	896.1429	893.8571	891.3571	886.6429
204	840.6429	858.0714	893.4286	913.1429	929.0714	910.6429	920.2143	920.7143	934.5714	947.1429	947.1429	948.5714	945.5714	939.7143	941.9286	932.5	928.7857	923.0	923.9286	915.4286	914.7143	908.7857	909.5	910.2143	905.0	899.2143	898.0714	899.0	895.6429	893.1429	892.9286	883.0
205	841.2143	860.9286	893.5	919.0	926.0714	911.2857	916.8571	928.7857	928.5714	939.1429	948.0714	947.9286	946.8571	946.9286	941.7857	934.2143	931.6429	929.0714	922.7143	921.2857	913.0	912.9286	907.0	905.1429	902.9286	899.7143	902.1429	892.5714	898.2857	889.8571	888.7857	884.7143
206	840.4286	863.1429	913.0714	922.0	927.1429	910.9286	921.2143	927.5714	936.2143	944.0	950.0	946.6429	948.4286	948.0	940.2857	937.6429	929.4286	928.2857	922.0	926.1429	918.4286	918.7143	913.0714	908.9286	909.0714	905.2857	902.0	905.0	900.3571	896.4286	899.2143	892.0
207	836.7857	866.9286	910.3571	928.2143	943.3571	920.2857	928.5714	942.7143	944.1429	952.1429	959.5	958.1429	958.6429	957.2857	951.5714	946.9286	938.1429	937.5714	935.5	934.9286	928.5	925.2143	922.4286	920.1429	911.1429	914.9286	913.5	911.0	908.6429	901.5714	901.5	896.4286
208	840.6429	876.5714	908.9286	927.5714	932.7857	915.6429	926.5714	924.0	937.8571	944.8571	948.5	952.0	948.5714	946.7857	944.8571	936.5	932.5714	928.2143	924.1429	924.2143	918.0	913.5714	910.1429	913.5	905.8571	906.2143	903.4286	898.8571	899.3571	891.4286	892.2857	894.3571
209	838.7143	874.8571	902.3571	927.0714	942.7143	916.9286	921.1429	932.4286	937.3571	947.7143	957.5	951.4286	950.2857	949.7143	950.7143	940.7857	935.0	929.7143	926.7857	927.5714	921.5714	917.3571	909.8571	913.0714	907.5714	904.5	904.5	904.3571	893.8571	896.0	895.0	884.5
210	838.3571	871.5	904.5	929.1429	943.7857	919.3571	928.2143	933.2857	939.0	945.5714	954.0714	953.4286	953.6429	954.0714	955.6429	941.7143	941.1429	927.7857	928.0714	926.0714	923.3571	918.2143	913.9286	914.3571	905.5	910.5	911.8571	906.9286	905.1429	901.3571	897.1429	895.0
211	839.4286	872.1429	909.9286	935.7857	941.4286	920.8571	923.7143	928.0714	938.5714	949.7143	955.6429	959.5	953.4286	950.5714	948.7857	941.2857	938.0714	926.4286	931.5714	929.5	925.4286	925.9286	913.0	914.5	911.6429	908.1429	909.9286	908.2857	907.5714	897.5	894.0	890.2857
212	841.7857	872.5714	909.7857	934.0714	940.0714	917.7857	917.6429	933.7143	932.2143	940.2143	941.9286	944.7143	945.9286	942.7143	940.6429	939.0714	932.7857	924.8571	927.1429	921.5	919.2857	919.0714	911.5714	907.2857	904.1429	903.8571	896.0	900.7143	896.8571	893.7857	886.6429	878.8571
213	838.5714	874.7143	911.2857	935.5714	944.5	915.0714	919.5	929.6429	932.2857	942.4286	944.6429	942.4286	940.3571	943.5714	942.5714	938.1429	932.7143	925.5714	921.8571	918.9286	918.7143	914.5714	910.7143	908.2857	906.0714	904.8571	897.2857	903.9286	895.4286	891.9286	892.5	885.9286
214	842.7143	878.1429	915.5	943.1429	949.3571	923.5714	928.8571	932.7143	946.9286	948.4286	953.2857	958.2857	955.8571	951.6429	953.5714	943.7857	934.5714	931.9286	933.4286	926.4286	930.2143	923.0714	916.8571	915.0714	910.2143	909.7143	906.0714	906.0714	901.7143	901.7857	893.7143	889.3571
215	847.0714	878.7857	918.7143	948.8571	953.6429	925.0	927.5	931.8571	938.1429	946.1429	950.4286	951.8571	946.6429	943.8571	945.5	939.2857	932.9286	932.5714	928.4286	929.2857	917.3571	918.2143	909.7143	908.2857	905.8571	905.1429	903.3571	902.9286	901.8571	893.6429	885.9286	889.1429
216	844.5333	877.3333	920.73334	942.3333	959.26666	926.4667	935.6	941.86664	947.2	956.86664	958.6	962.26666	958.5333	959.93335	951.6667	945.73334	941.93335	938.6667	937.93335	936.3333	930.06665	919.5333	920.5333	918.13336	917.5333	914.13336	909.3333	908.8	909.13336	905.8	902.0	897.8
217	830.8571	838.9286	853.8571	868.4286	883.3571	903.3571	921.7143	928.6429	935.1429	948.8571	951.2857	947.8571	950.8571	944.5714	945.4286	939.3571	934.4286	932.0	925.7857	926.5	918.2857	915.5	916.2143	909.0714	906.7857	905.3571	905.8571	911.4286	901.8571	900.5	894.1429	891.6429
218	831.6429	840.7143	853.5	864.6429	883.2857	893.0	913.5	918.8571	929.5714	940.2857	935.2857	939.0	938.7143	935.1429	935.7143	935.6429	925.0714	922.6429	923.0	914.2143	915.5	912.2857	908.6429	908.5714	904.1429	895.0	898.2143	898.0714	897.2143	890.9286	893.3571	882.3571
219	830.7857	843.1429	853.2143	868.6429	880.4286	895.8571	906.0714	927.0	932.0	933.2857	940.2857	949.7143	938.6429	938.7143	937.5	932.0714	927.9286	922.6429	925.0	916.5	910.5	914.0	909.1429	904.4286	908.3571	902.5	900.2857	899.3571	902.5	895.3571	890.9286	887.5714
220	832.2143	840.8571	849.9286	863.7857	875.2143	894.5714	904.2143	915.0714	918.8571	930.5	931.3571	934.2857	931.0714	935.0714	930.8571	924.3571	919.5	921.3571	911.6429	917.4286	909.5714	908.1429	902.7143	898.5	892.4286	898.5	895.0714	896.6429	893.5714	893.7857	885.0714	883.3571
221	833.0714	839.2857	855.2143	868.8571	883.9286	896.0	913.0714	916.8571	933.3571	940.6429	940.7143	940.2143	942.7857	936.0	943.4286	931.3571	925.2143	922.8571	923.7857	915.0	916.3571	913.7857	907.7143	908.0	902.8571	901.2143	904.5	893.2857	900.8571	894.4286	889.7143	881.7857
222	833.6429	844.7143	858.7857	871.3571	883.3571	901.1429	912.0714	924.4286	934.2143	945.4286	943.7143	947.8571	946.1429	941.8571	939.2143	940.7143	922.2143	928.5714	920.2143	925.1429	926.1429	916.8571	904.0	909.3571	907.1429	906.0714	900.8571	900.0	901.4286	900.2857	894.3571	890.3571
223	829.7857	845.9286	860.7857	874.2143	883.7143	902.2143	913.3571	922.8571	933.5	939.5714	946.7857	945.8571	947.7857	939.5	939.7857	937.0714	927.7857	927.2143	928.7857	924.5714	923.6429	914.7857	910.4286	912.5	908.6429	907.2143	901.0714	913.5714	903.7857	903.0	900.2857	889.5714
224	836.2857	844.3571	858.7857	868.7143	888.9286	896.5	909.3571	915.4286	931.0714	939.5714	943.1429	941.5714	934.1429	939.0	936.0714	935.0	922.0714	921.0714	918.2143	913.0	913.0714	912.1429	906.2857	899.7143	902.2857	904.5714	895.9286	893.5714	890.5714	895.5714	888.7143	883.2143
225	829.5	850.2857	859.9286	882.6429	899.5714	902.3571	909.8571	919.0	929.6429	937.7857	940.1429	945.0714	941.2143	938.5714	937.1429	931.2857	927.0	925.4286	918.3571	914.2143	914.6429	913.0714	904.5714	908.4286	900.8571	907.0	900.4286	901.7143	894.1429	892.2857	897.1429	881.9286
226	841.1429	851.0714	865.6429	878.1429	884.2143	895.6429	912.2143	920.0714	929.2857	930.0	938.2857	940.2143	933.5	931.2857	933.0	928.0714	921.3571	925.9286	915.7143	913.2143	906.7143	908.9286	909.9286	904.9286	898.2857	896.5	898.6429	897.7857	897.7143	892.5714	890.6429	889.7143
227	833.8571	849.7857	866.4286	875.0714	889.0	904.8571	913.3571	927.5	936.7857	944.2143	948.5714	947.2143	948.7857	941.5	941.7857	935.1429	927.5714	928.5	918.8571	921.7857	916.1429	919.2143	910.3571	906.5	906.0	905.7143	902.5	900.6429	897.6429	893.2143	889.0	891.7857
228	838.8571	847.3571	872.1429	875.9286	888.1429	900.5	912.5	918.2857	932.6429	938.7143	946.3571	944.4286	942.9286	939.1429	934.2143	935.8571	927.7143	923.6429	919.9286	918.7857	914.5714	913.0714	907.4286	900.2143	903.5	904.7143	906.0	898.5	894.2857	893.7857	895.7857	884.3571
229	835.5	850.1429	864.7143	877.0	888.0	900.3571	911.5	926.9286	935.0	941.7143	948.0	942.4286	944.9286	945.1429	944.6429	934.7143	926.8571	921.3571	919.5	917.2857	914.4286	915.0	903.2857	907.5	902.8571	901.1429	897.3571	903.2143	900.8571	889.0714	889.2857	883.1429
230	838.0714	851.5	874.1429	879.1429	888.6429	904.9286	920.7143	925.1429	938.3571	937.5714	948.2143	947.8571	950.2143	946.2857	940.1429	938.5	930.5714	930.5	928.9286	925.7143	921.0	914.7857	912.5714	912.8571	908.2143	905.6429	900.3571	899.0714	899.7857	896.5	894.4286	891.4286
231	832.5714	856.0714	880.4286	879.4286	890.8571	906.0714	917.0	932.3571	933.7143	946.3571	947.8571	957.9286	948.6429	944.5714	947.2143	940.5	936.6429	929.9286	923.0714	925.6429	922.1429	919.5714	913.2143	909.7857	905.7857	908.4286	911.7143	906.0	898.1429	899.8571	894.9286	892.0714
232	839.1429	850.2857	868.0714	874.0714	888.8571	903.7857	914.1429	928.7857	934.0714	942.7857	943.1429	945.2857	943.6429	936.0714	945.5	936.7857	927.5714	925.4286	923.2857	916.1429	916.7857	914.9286	908.0	907.1429	901.0	904.6429	900.1429	903.3571	897.7857	895.7143	892.1429	888.9286
233	836.4286	849.3571	864.2143	883.6429	893.9286	912.0	917.6429	929.7857	939.8571	949.9286	953.2857	953.6429	951.6429	952.5	946.4286	942.5714	938.4286	927.5	926.7857	926.3571	924.7143	915.2857	912.2143	909.3571	910.2143	907.0714	905.7857	902.8571	903.0714	899.7857	900.0714	888.4286
234	839.4286	850.0	861.8571	882.6429	892.6429	903.4286	921.1429	927.7143	936.2857	941.2143	949.8571	948.6429	947.1429	947.8571	946.0	943.0	928.1429	925.8571	925.7143	922.8571	921.3571	915.0	914.7143	906.2857	904.4286	903.7857	907.9286	903.2143	897.3571	897.8571	893.5714	889.1429
235	843.3571	859.3571	872.5	880.7857	891.3571	907.7857	917.0714	925.8571	938.5714	947.9286	946.3571	950.0	948.2143	946.8571	945.5714	941.7143	930.4286	934.0714	925.4286	926.5714	921.2857	913.2143	916.6429	910.3571	906.3571	900.7143	903.2143	904.4286	900.9286	897.3571	897.6429	890.2143
236	841.2143	848.8571	869.2143	882.2857	891.4286	907.0714	917.6429	930.2857	937.1429	947.9286	949.1429	951.3571	944.7857	947.7143	945.4286	939.2143	935.2857	928.0	929.2143	926.8571	921.7857	917.9286	909.5	910.0714	911.3571	907.7143	902.3571	899.6429	903.9286	898.5714	892.9286	887.4286
237	841.9286	853.7857	861.5	883.5	893.5	907.0714	915.5	923.8571	933.4286	940.6429	947.4286	946.2857	936.5	940.8571	938.3571	935.8571	931.1429	925.7857	921.9286	919.2143	917.5	912.4286	915.0	905.2857	903.7143	907.0	902.7143	901.5	892.7857	892.5714	889.6429	885.7143
238	843.0714	856.2143	871.8571	887.7143	899.2857	910.6429	923.2143	934.6429	942.2143	950.5	954.8571	956.6429	953.5714	948.7857	947.0	941.1429	932.2857	931.4286	928.5	922.2143	923.9286	920.0714	909.6429	911.4286	906.2143	909.0714	907.9286	909.4286	897.0714	905.3571	895.2857	887.2143
239	843.0714	856.7143	873.0	885.0	901.7143	907.9286	920.9286	931.5714	938.2857	952.0	946.9286	951.7857	948.2857	949.6429	945.4286	941.5714	931.5714	928.2143	925.7857	924.4286	912.6429	915.0714	918.9286	909.0	908.7857	904.3571	903.0	900.2143	899.7857	899.7857	892.0714	890.7143
240	840.5333	857.3333	876.73334	893.93335	902.8	918.3333	925.4	942.06665	947.73334	949.73334	960.8	951.4	959.26666	951.5333	948.6	946.73334	939.13336	928.8	933.26666	927.6	925.13336	915.93335	913.73334	908.8	908.13336	909.86664	904.73334	903.13336	906.2	896.6	894.6667	890.13336
241	823.8571	837.6429	853.1429	866.0714	886.2857	904.7143	921.3571	931.0	944.2143	954.2143	951.7857	961.4286	963.2857	952.7143	957.1429	950.5714	936.3571	941.2143	934.7143	933.6429	932.3571	925.3571	925.2857	918.5714	916.7143	913.8571	914.1429	913.1429	909.5	902.0	901.0	896.5714
242	831.7857	834.2857	845.1429	857.1429	868.0714	880.6429	887.4286	899.6429	907.4286	913.7143	916.1429	916.1429	921.8571	913.1429	912.6429	913.2857	908.0	903.0	899.0714	896.5714	896.2857	895.2857	891.0	889.2857	884.9286	884.9286	880.2857	879.1429	884.5	880.1429	873.4286	876.1429
243	833.8571	839.6429	850.9286	865.4286	868.1429	886.0	897.5714	906.1429	916.7857	920.2857	927.2143	929.5	932.7857	924.3571	921.8571	922.8571	910.2857	910.3571	909.2143	907.0	906.4286	899.1429	895.9286	892.9286	889.6429	884.7857	888.5714	887.2857	887.5714	884.2857	883.5	879.4286
244	830.7143	839.7143	851.1429	863.6429	873.6429	882.1429	893.2143	902.4286	913.0	911.7143	919.0714	926.9286	925.5714	925.9286	919.7143	920.2857	908.7857	909.9286	908.2857	901.9286	898.2857	895.9286	894.5714	892.7143	885.5	887.0714	884.5	886.5	883.7857	885.4286	880.0	874.0
245	827.3571	840.4286	851.7857	863.8571	875.0714	884.6429	895.1429	905.1429	913.5	920.2857	923.8571	922.4286	924.2857	919.0714	917.8571	916.9286	908.2857	905.2143	905.3571	902.4286	902.4286	894.3571	896.2857	890.9286	895.8571	884.7143	886.2143	886.7857	881.5714	877.7857	878.5714	874.7857
246	833.2143	842.1429	849.0	866.8571	876.1429	888.4286	897.1429	908.2857	914.5714	923.8571	928.0714	926.2857	925.8571	925.2857	921.2143	923.5	913.3571	906.8571	908.1429	908.5	901.8571	904.0714	898.0	895.1429	889.2857	888.7857	889.8571	888.1429	884.4286	880.7143	884.1429	877.5
247	828.4286	839.3571	857.2143	863.8571	879.8571	890.0714	899.1429	913.6429	920.8571	920.3571	925.7143	929.3571	929.9286	920.0714	925.2143	923.5714	913.5	914.8571	906.7857	902.4286	909.0	901.5	896.5714	890.3571	891.7857	894.6429	886.7143	889.0	886.5	882.5714	886.5714	880.4286
248	831.5	842.8571	857.5714	868.7857	871.5	884.1429	895.2143	899.5714	907.7143	909.2857	916.7857	917.5	921.5714	910.7143	911.5714	912.0714	901.8571	904.3571	897.1429	901.5714	894.7143	890.6429	887.7143	886.6429	885.3571	882.7857	879.2143	873.5714	879.2857	876.1429	875.0	872.7857
249	827.1429	850.9286	858.2143	865.7143	875.9286	888.8571	896.1429	907.5	914.4286	923.2857	930.0714	926.5714	918.8571	923.1429	922.3571	911.1429	906.1429	904.9286	905.4286	899.4286	902.5	899.6429	893.2143	890.2143	884.9286	884.2143	886.0714	886.0	879.0	883.5	880.6429	877.8571
250	835.8571	848.2857	870.0	874.0	880.0714	889.0	901.5714	911.8571	918.5714	925.1429	925.6429	933.1429	931.0714	924.8571	920.7143	927.3571	911.1429	905.4286	913.2143	904.7143	905.1429	903.5	891.7143	897.1429	893.2857	888.2857	884.7857	885.6429	883.2857	883.7143	880.6429	879.1429
251	835.2857	848.1429	860.2143	870.5	874.7857	892.2143	904.0714	911.5714	918.9286	920.8571	925.4286	931.7857	924.1429	928.0714	922.6429	918.7143	909.7143	907.3571	905.2857	904.2857	905.6429	897.6429	890.0	891.1429	889.7857	888.2143	889.3571	883.0714	885.9286	886.2143	879.1429	877.8571
252	828.2857	850.6429	862.9286	871.0	877.8571	886.5	897.1429	903.5714	911.1429	918.0714	926.6429	927.1429	925.0	919.0	924.9286	920.0	910.8571	908.7857	902.0714	902.8571	896.9286	896.9286	897.9286	890.6429	893.7857	887.0714	885.6429	883.2143	880.7857	878.1429	875.0	873.5
253	831.9286	846.5714	861.2857	872.4286	882.2143	882.5	898.2857	911.0	913.6429	918.5714	930.7857	922.4286	924.3571	925.8571	919.0714	919.1429	909.7857	903.6429	906.4286	903.5	897.7857	895.7143	889.5	894.5	890.4286	889.3571	886.7857	884.2857	878.0	882.1429	878.2857	878.5714
254	835.2143	850.5	867.0714	876.6429	879.0714	892.0714	904.6429	909.9286	916.2857	922.9286	936.4286	931.0714	930.2143	923.0714	922.3571	922.0714	912.1429	906.7143	903.0714	908.7857	903.9286	897.3571	898.1429	891.3571	892.6429	887.2857	890.5714	892.2857	881.6429	890.1429	879.7857	875.9286
255	836.5714	848.3571	870.4286	870.0714	880.6429	887.7143	895.0	906.9286	913.5	921.3571	925.9286	925.0714	924.3571	919.9286	917.4286	920.5714	910.5714	908.7857	904.8571	903.7857	896.5714	897.9286	899.0	897.0714	886.7857	888.2143	885.2857	883.7143	883.0	881.5714	882.0714	875.4286
256	837.0714	847.1429	860.5	872.2143	883.3571	894.0	903.0714	913.4286	925.2143	931.1429	929.0	931.7857	936.6429	923.8571	925.0	925.9286	919.6429	916.2857	908.9286	912.5714	909.0714	906.5714	904.5	898.2143	894.2143	891.2143	894.0	891.7143	887.7143	889.5714	887.2143	880.6429
257	835.2143	844.9286	861.2857	870.5714	879.5	891.6429	904.5	909.2857	915.2857	921.3571	929.9286	928.7857	929.7857	926.9286	926.0	922.4286	915.7143	907.1429	907.0714	906.7143	898.9286	901.3571	898.8571	895.3571	890.5714	894.6429	894.9286	887.6429	887.9286	885.0714	883.9286	877.2143
258	836.9286	852.5714	868.1429	876.5714	881.2857	892.7857	896.6429	915.3571	923.3571	924.7143	929.1429	925.5714	926.7143	922.5714	919.5714	918.6429	917.5714	913.8571	909.2143	906.4286	902.2857	903.2857	893.2857	892.0714	893.7143	884.6429	889.5	886.7143	886.9286	883.3571	878.0714	880.3571
259	832.8571	846.1429	867.3571	877.9286	897.1429	916.1429	935.1429	945.4286	954.2143	967.1429	974.2857	977.6429	978.3571	966.7857	966.0	960.2857	953.6429	945.7143	943.7857	937.0714	927.5	927.8571	926.9286	920.7143	919.0714	910.5714	915.6429	910.3571	909.2143	907.6429	904.7143	899.9286
260	832.7857	848.8571	866.0714	876.0714	890.3571	905.5714	914.2857	926.6429	932.8571	944.3571	948.0	951.2143	948.2857	941.9286	942.3571	939.5714	928.1429	926.7857	921.3571	920.5714	915.7857	914.5	909.9286	906.6429	901.3571	899.8571	901.2143	901.0	901.0714	894.7857	891.5714	888.7857
261	832.5	849.5	869.2857	881.4286	892.2143	907.4286	924.5714	932.5	942.8571	948.6429	955.9286	960.2143	955.8571	951.5	953.4286	945.7857	937.2143	935.2857	929.2857	926.9286	922.9286	921.5714	915.2857	915.0714	914.5	909.5	900.5714	899.0714	901.3571	899.3571	892.9286	886.8571
262	841.0714	855.6429	870.2143	879.8571	886.8571	897.6429	906.5714	916.2857	925.6429	929.3571	935.4286	936.5	939.8571	934.2857	933.7143	928.1429	918.2857	912.0714	912.5	913.5	912.6429	908.9286	902.8571	900.7143	899.3571	896.2143	895.5714	889.2143	894.4286	890.4286	884.4286	881.9286
263	836.0	853.4286	867.9286	877.2857	888.9286	892.3571	909.3571	921.7143	922.5	929.8571	934.7143	933.5	933.7143	935.8571	922.9286	932.9286	922.5714	920.6429	912.2143	910.7857	914.0	904.7857	900.9286	901.2857	898.7857	897.5	895.2143	889.6429	890.5714	888.6429	885.0714	883.2143
264	841.26666	857.06665	869.6667	877.4	889.2	901.86664	911.73334	924.0	932.2	935.86664	942.93335	941.26666	934.5333	936.73334	931.73334	929.73334	924.4667	915.86664	916.8	918.6	914.86664	910.13336	904.8	902.26666	898.6667	901.3333	895.06665	891.6667	888.13336	888.0	887.2	881.86664
265	825.8571	837.4286	850.8571	860.7143	873.2143	888.9286	895.9286	909.2857	921.2857	929.1429	931.9286	934.3571	933.3571	927.8571	930.0	926.0714	913.5	912.6429	912.9286	911.0714	905.7857	908.7857	903.0714	895.7143	895.0714	894.1429	894.7857	890.5	891.3571	887.5714	889.6429	877.7143
266	828.7143	837.7143	854.5714	854.9286	872.2857	879.0	897.2143	902.0714	912.7857	920.6429	922.0	922.0	918.7143	916.2143	917.9286	918.5	914.8571	904.7143	907.9286	902.0	893.2857	899.0	902.4286	891.4286	893.2143	888.6429	892.0	888.1429	886.8571	881.8571	884.4286	873.7143
267	829.1429	838.5714	846.4286	860.3571	870.6429	891.7143	902.1429	909.5	914.8571	927.0	939.8571	935.5	934.2857	931.8571	930.7857	928.1429	921.2143	910.8571	911.7143	910.9286	911.4286	903.3571	897.4286	897.0	899.4286	896.3571	897.4286	894.7857	892.0	887.5714	887.7857	878.7857
268	828.4286	840.2143	849.0	863.3571	870.4286	881.8571	894.7857	902.3571	916.5	920.6429	920.2857	927.6429	927.7857	925.5	918.4286	915.3571	906.4286	908.0714	908.5	899.6429	900.0	895.1429	893.4286	890.5	894.4286	886.7857	888.7143	883.8571	876.5714	881.3571	882.4286	875.2857
269	823.7143	837.5714	854.1429	859.5	870.0714	882.6429	894.7857	906.7857	913.7143	928.0	923.5	925.0	926.7857	924.0	918.1429	919.2143	914.0714	906.5714	907.0714	904.8571	898.9286	896.2143	897.5	891.8571	894.3571	889.5	889.3571	886.1429	886.0	881.2857	878.1429	875.3571
270	828.5	842.5	855.0714	861.0	882.6429	895.5	907.5714	918.7143	928.2143	942.1429	941.1429	940.8571	938.0	938.6429	939.5	932.6429	926.5714	920.8571	914.8571	915.2857	915.6429	911.0714	910.1429	906.0714	901.9286	902.5714	900.6429	898.3571	894.4286	893.9286	893.4286	884.1429
271	821.2857	841.5	857.6429	857.1429	872.3571	883.6429	890.2857	901.4286	914.2857	916.7857	923.7857	926.3571	925.6429	923.3571	917.7857	913.5	906.7857	906.3571	904.0	898.5	893.2857	896.1429	892.3571	886.7143	890.0714	888.4286	886.5	883.7143	879.0714	880.7857	875.1429	871.3571
272	831.3571	843.7857	858.6429	860.2857	879.2857	894.5714	910.0	913.5	919.0	932.8571	941.1429	943.8571	940.0714	935.3571	934.5714	932.8571	926.7857	919.7857	919.6429	920.8571	913.0	908.1429	909.5714	901.2857	905.1429	901.0	900.5714	899.3571	893.0	891.2143	889.3571	882.0
273	831.2857	852.9286	863.5714	867.1429	875.7143	887.9286	900.3571	903.2857	914.3571	920.0	922.0714	932.2143	924.5	925.7143	924.0714	919.6429	911.9286	906.0714	911.6429	907.2143	905.2143	900.7857	899.1429	897.7857	888.5	889.9286	892.1429	886.2857	888.4286	885.2143	881.6429	881.4286
274	829.0	848.5714	861.0714	866.3571	873.7857	887.3571	900.0714	908.3571	918.0	919.9286	932.5714	926.9286	931.6429	927.1429	922.8571	922.1429	919.3571	903.6429	913.8571	911.0	904.2857	904.0	896.2143	894.9286	898.4286	894.2143	891.2857	888.8571	885.0714	886.2143	880.8571	876.8571
275	828.4286	848.6429	861.0	866.7143	877.1429	891.5714	903.7857	909.5714	922.1429	925.0	935.5	936.0714	936.4286	932.2143	932.8571	927.7857	920.3571	914.6429	914.6429	914.0	908.5714	904.0714	904.1429	898.2143	898.2857	894.1429	895.6429	893.6429	894.5	888.1429	881.0	880.3571
276	827.3571	842.6429	857.5	866.9286	883.5714	889.0	904.7143	907.6429	914.2857	922.6429	930.7143	937.4286	929.3571	926.6429	925.3571	921.8571	918.6429	911.7857	913.4286	908.9286	909.5	904.1429	899.4286	893.4286	896.7857	892.3571	894.0	891.6429	891.0714	885.2143	878.3571	875.3571
277	828.8571	851.7143	858.0714	866.2857	882.6429	892.5714	901.2857	905.1429	917.6429	927.2857	932.2143	934.4286	933.4286	927.7857	925.4286	922.7857	917.4286	909.2143	909.0	909.0714	898.1429	901.3571	898.5	899.0714	897.0714	892.5	891.2857	890.6429	888.4286	885.0714	883.5714	878.3571
278	833.7143	855.7143	868.2143	870.5	879.7143	885.5714	905.5	913.5714	922.0	931.1429	932.6429	929.9286	929.7857	929.7857	928.6429	926.4286	918.7143	910.0714	913.6429	912.8571	905.5714	904.2143	900.6429	893.3571	900.7143	893.5	899.2143	892.6429	887.0714	891.2143	879.5714	880.7143
279	830.0714	855.2857	869.2857	866.8571	879.4286	889.0	900.1429	910.0	919.8571	926.2143	932.3571	927.4286	928.3571	929.0714	926.0714	922.2857	917.5	910.3571	908.0	907.2143	905.4286	902.0	897.7857	897.7857	892.0	891.7857	891.3571	883.2143	883.7857	885.6429	879.8571	872.4286
280	834.2143	844.3571	857.3571	871.4286	885.9286	889.5714	908.0	919.1429	926.0	930.3571	941.5714	943.2143	938.2143	938.3571	935.5	930.7143	924.9286	919.5	918.0	918.1429	917.4286	913.3571	908.4286	899.7857	898.2857	897.5	899.9286	896.3571	889.8571	892.4286	892.1429	882.5
281	833.0	847.2857	865.6429	867.3571	881.6429	896.5	907.1429	915.8571	917.0	933.5	937.5	937.8571	935.0714	933.5	931.2857	924.2857	923.2143	911.1429	916.2143	914.1429	905.1429	906.0714	905.7143	901.3571	899.0714	902.0	897.6429	896.7143	890.0714	890.4286	883.9286	878.8571
282	830.2857	853.5714	864.0	871.2857	879.9286	893.5714	906.0	919.4286	926.1429	933.5714	933.3571	935.7143	931.5	933.5714	932.0714	927.3571	922.0	920.0714	919.1429	907.7143	910.0	902.7857	902.3571	897.5	898.3571	895.2857	893.7857	892.7143	895.9286	886.2143	882.5	879.0
283	829.8571	849.3571	864.1429	869.7143	879.4286	893.7857	905.2857	915.5714	925.1429	931.2143	932.3571	938.7143	934.2143	935.2143	937.7857	930.8571	918.2143	918.5714	916.2143	914.2857	912.8571	904.5	899.7143	900.0	896.2143	899.4286	898.8571	896.2143	888.9286	892.7143	887.0714	880.3571
284	833.1429	854.2857	864.7143	871.6429	884.9286	898.5	911.3571	917.7857	929.8571	937.7143	943.5	946.0714	939.5714	940.1429	945.6429	935.3571	925.8571	921.2857	916.8571	919.9286	913.9286	912.5	912.1429	906.2143	903.0	901.7857	904.0714	899.0714	895.5714	896.6429	890.8571	886.0
285	829.5	854.5714	875.3571	875.9286	889.7143	899.9286	906.2143	915.4286	928.2857	932.6429	939.3571	939.3571	935.7857	933.5714	935.2857	926.8571	926.9286	920.2857	917.0714	916.7857	914.7857	908.3571	905.8571	901.2857	899.9286	902.7857	900.7857	893.9286	888.2857	891.7857	884.6429	885.2143
286	830.0714	861.9286	869.2857	877.4286	886.7143	897.3571	908.8571	923.2143	929.0	938.8571	943.2857	945.2857	944.0714	943.9286	936.2143	932.5714	926.0	924.8571	921.5	912.2143	920.7143	910.1429	904.2857	904.3571	900.7857	906.4286	904.2857	895.9286	897.1429	891.7143	894.7857	884.9286
287	835.0714	862.8571	870.5	877.2143	885.5714	894.5714	910.5714	913.6429	921.2857	937.2143	938.2857	937.5	937.2143	929.9286	932.3571	930.1429	923.9286	920.1429	916.0	913.9286	913.5714	907.7857	906.7143	898.5	897.0	897.5714	896.0	894.2857	890.4286	888.5	887.9286	882.4286
288	838.8	853.86664	874.73334	874.4	883.6667	894.6	903.4	918.73334	925.4667	926.6	942.06665	935.93335	932.3333	931.4	931.26666	924.2	920.5333	913.2	914.73334	908.6667	912.26666	908.3333	901.93335	899.6	896.73334	897.26666	898.3333	892.3333	888.8	886.5333	881.4667	877.26666
289	825.9286	830.5714	847.7857	856.7143	872.3571	883.6429	892.2857	905.9286	909.7857	915.4286	922.1429	922.5	926.6429	913.5714	920.2143	912.8571	911.2857	908.4286	903.7857	899.2857	902.7143	897.2857	895.1429	896.6429	890.0714	885.4286	890.0714	884.7857	885.2857	880.0	878.4286	875.2143
290	824.7143	834.6429	847.2857	852.5	864.5	876.1429	881.0714	886.0714	895.4286	909.5	903.1429	909.4286	908.9286	906.3571	909.2857	909.5714	893.7143	895.6429	889.5	890.5714	888.2143	885.8571	882.2143	882.7143	883.3571	878.4286	880.9286	877.2857	879.2857	870.2857	871.1429	862.8571
291	822.3571	833.0714	840.7143	852.5	867.0714	876.4286	883.9286	893.0	901.7143	905.7857	912.0	912.6429	912.2857	909.1429	907.1429	901.4286	905.2857	890.7143	895.2143	889.8571	889.5	890.6429	884.9286	880.5	887.4286	877.5714	882.0	879.1429	878.3571	874.8571	868.3571	869.2143
292	824.2857	836.0714	844.0	854.9286	861.5714	873.1429	890.2857	890.5714	889.0714	907.9286	911.8571	907.5	913.9286	904.0714	903.2857	908.0714	901.2857	900.5714	885.2857	892.0714	892.4286	885.5	888.2857	887.6429	884.4286	877.5	877.4286	879.0	879.0	869.7857	872.0	865.3571
293	821.5	835.3571	851.2143	854.0714	862.2857	873.6429	885.0714	890.3571	896.1429	904.8571	907.5	910.7857	908.0714	907.7143	909.1429	898.8571	899.7143	897.1429	895.8571	891.2143	887.7143	887.2143	882.6429	884.5714	883.7857	885.2143	879.7857	873.6429	877.0	877.5	870.7143	865.0
294	827.2143	837.4286	849.2857	855.7143	865.6429	886.0	891.5	907.1429	907.7143	913.8571	918.2857	921.9286	923.5714	922.2143	915.3571	911.2143	908.8571	907.7143	901.0	899.6429	899.4286	897.4286	891.0714	889.3571	889.7143	885.5	882.8571	890.0	885.0	879.7857	880.4286	873.9286
295	826.5	849.0714	853.8571	856.6429	866.3571	879.2143	884.8571	892.0	902.4286	908.7857	907.7857	908.2857	912.1429	912.2143	908.0714	905.7143	900.6429	902.0	894.4286	895.0714	891.9286	888.7857	884.2857	887.6429	879.2143	886.2143	880.5	877.0714	878.6429	873.2143	871.6429	867.0714
296	827.7857	838.3571	859.5	858.5	868.7143	872.0714	890.7857	893.0	902.9286	910.1429	911.2143	909.9286	913.0	910.2857	908.9286	905.4286	898.3571	902.0	894.0	897.6429	892.0714	890.5	891.9286	881.0	882.9286	883.2857	881.5	878.2857	877.0	875.3571	869.2857	862.2143
297	827.7857	839.8571	858.4286	868.0714	867.4286	881.5	885.7143	895.6429	906.0714	913.5	908.6429	916.6429	921.2857	910.9286	913.6429	906.0	903.7143	903.5714	896.8571	895.3571	898.0714	891.9286	885.0	884.1429	885.7143	883.0	881.9286	879.3571	877.3571	881.1429	872.0	869.0714
298	830.4286	845.7857	868.7143	889.0	912.2857	934.5714	961.4286	980.0714	1002.5714	1017.5714	1033.2142	1033.8572	1036.0714	1026.0714	1018.0714	1014.5714	1003.7143	1007.5	1002.5714	998.6429	995.0714	988.5	983.7143	977.8571	976.7857	975.0714	974.7857	971.6429	969.0714	953.5714	956.7857	941.8571
299	825.9286	837.5	853.6429	859.2857	872.6429	885.0714	889.0714	896.7143	901.5	915.0714	918.4286	921.6429	918.4286	917.6429	911.0	904.2857	907.8571	907.2143	902.8571	895.3571	892.4286	892.5714	888.9286	884.9286	888.5714	885.4286	883.2857	879.6429	878.7143	878.2143	870.7857	870.0
300	829.0714	836.8571	855.6429	858.4286	870.0714	883.5	893.5714	900.5714	908.2143	917.6429	924.2857	922.3571	929.1429	924.3571	915.2857	916.2143	908.3571	906.0714	902.8571	906.5	899.3571	893.9286	894.5	893.5	888.5	885.5	885.5714	884.7143	880.3571	881.5	879.4286	876.4286
301	828.3571	839.7143	853.2143	861.5714	873.2143	883.3571	894.5714	902.6429	916.6429	919.5714	921.5714	922.7143	923.3571	914.2143	919.0714	915.4286	908.4286	909.5714	901.9286	904.0714	896.1429	898.7857	894.4286	890.7857	888.7143	884.9286	886.1429	886.8571	883.7143	880.9286	873.6429	874.3571
302	833.9286	842.3571	864.8571	866.5	869.6429	884.0714	894.8571	907.5	905.2857	915.5714	921.2857	922.2857	925.7143	920.3571	913.3571	918.9286	904.5714	910.8571	900.3571	901.5	896.3571	897.0	892.1429	887.1429	886.2143	889.2857	884.8571	882.3571	884.7143	880.1429	879.1429	873.9286
303	828.8571	842.6429	857.8571	857.4286	867.2143	881.0714	890.3571	898.4286	903.4286	909.7857	909.5714	914.1429	913.7857	910.3571	908.0	904.7143	902.6429	901.7857	895.7143	896.6429	895.3571	888.0	889.3571	882.7857	883.7857	880.5714	881.0714	879.4286	877.4286	876.0	872.0714	870.4286
304	832.2857	841.7857	853.3571	864.5	875.1429	881.5	891.9286	901.1429	911.7857	913.9286	923.1429	920.9286	922.0714	918.7143	915.5	913.2143	906.4286	903.0	902.8571	899.9286	892.9286	891.3571	891.6429	887.2143	885.1429	890.2857	886.5714	885.7143	879.6429	876.1429	874.7143	873.2143
305	829.5	842.3571	860.3571	865.2857	873.0714	885.7143	893.7857	897.3571	903.1429	913.4286	914.5714	918.5	918.0714	915.6429	911.5714	909.2143	900.0714	900.5	899.5	897.2857	896.2857	891.6429	885.0	884.4286	883.9286	884.7143	877.3571	881.7857	882.3571	876.8571	873.5	869.6429
306	829.2143	841.1429	861.8571	864.7143	878.6429	884.9286	895.7143	906.0714	914.0	917.7143	924.0	924.8571	921.7143	920.6429	921.6429	919.4286	913.1429	909.9286	903.7857	901.2857	899.5714	897.5	894.0714	890.0	890.7143	886.3571	889.5714	884.5714	884.3571	878.0714	873.0714	869.2143
307	834.3571	849.6429	867.0714	864.9286	873.4286	885.2857	896.4286	904.7857	915.2857	923.2143	925.0714	926.4286	926.0714	925.4286	919.8571	917.7857	910.0	910.9286	912.0	907.3571	905.3571	902.3571	897.6429	885.9286	889.8571	890.2857	895.5	891.0714	885.4286	883.5	876.9286	876.8571
308	827.5714	842.8571	861.6429	868.2143	874.9286	886.7143	900.8571	905.7857	913.6429	922.6429	927.0714	928.3571	928.0714	923.6429	922.3571	918.5714	919.7857	914.8571	903.3571	909.9286	902.0	904.7143	896.5714	896.8571	895.7857	892.1429	893.2143	891.7857	886.5714	884.2143	881.6429	883.9286
309	830.5	848.0	861.9286	864.3571	874.9286	881.5	890.2857	899.1429	902.2143	909.5714	916.0714	919.2857	914.0714	913.7143	907.4286	901.4286	902.2857	902.5714	902.5	895.7857	892.6429	889.5	892.2143	883.0	884.9286	883.2143	880.3571	882.2143	871.1429	872.5714	873.8571	869.1429
310	829.0714	850.7143	864.1429	871.7857	878.8571	884.7857	895.3571	907.0	910.7143	917.3571	923.2857	928.5714	925.3571	922.0714	920.2143	913.3571	910.3571	906.7143	906.7857	901.5	896.0	893.6429	897.8571	895.0714	887.8571	889.9286	887.1429	889.1429	882.7857	882.9286	880.1429	870.3571
311	828.6429	850.5714	871.4286	875.2143	881.7857	888.0	891.2857	905.3571	908.7143	919.2143	918.3571	920.5714	918.8571	925.6429	920.3571	913.9286	906.7143	908.8571	904.9286	905.7143	897.2143	896.8571	889.8571	889.2143	890.8571	888.2143	886.8571	883.4286	880.5714	879.6429	877.2857	874.4286
312	831.8	850.86664	867.86664	877.5333	880.73334	889.5333	899.86664	909.4667	912.93335	924.0	925.73334	928.8	935.13336	926.0	924.0	922.26666	920.4667	912.8	910.26666	911.4667	905.4667	900.06665	898.6667	896.06665	900.0	894.26666	891.2	892.6667	892.3333	887.8	884.13336	878.4667
313	821.0714	834.1429	853.5	865.7857	884.0	893.7143	903.7857	919.0	929.1429	933.6429	941.0	939.3571	937.9286	937.7857	934.5714	921.5	925.5	922.7143	918.2143	915.4286	912.0	907.2857	912.1429	902.1429	909.5714	901.0	897.2143	896.1429	897.4286	891.7143	883.2857	879.2857
314	820.2857	829.7857	845.5	851.1429	868.1429	876.7143	886.8571	897.9286	909.2857	918.6429	920.1429	919.2143	916.1429	918.1429	910.8571	909.0714	899.2857	901.0714	895.5	899.0714	892.5	888.3571	883.8571	889.8571	884.0	882.4286	883.8571	878.1429	881.4286	875.6429	871.1429	866.5
315	826.2143	831.3571	845.0714	853.2143	865.7857	872.3571	886.2857	896.2857	896.8571	905.6429	907.2143	908.7857	910.7143	906.0714	902.7143	902.2143	906.1429	892.2143	888.1429	892.2857	885.6429	886.3571	886.6429	882.0714	878.2143	880.9286	874.4286	878.2857	872.0	873.0714	869.5714	864.9286
316	825.6429	835.1429	847.5714	849.2143	864.2857	872.7857	886.1429	893.0714	900.0714	905.0714	911.5	904.5714	905.9286	903.3571	907.7857	903.2143	898.2857	889.7143	886.5714	893.7857	888.7143	886.0714	890.3571	882.5714	883.8571	873.6429	879.0714	874.2143	879.5714	870.6429	871.5714	864.4286
317	825.0	834.5	844.7143	854.9286	863.2143	871.5	880.5714	889.3571	892.9286	908.2143	904.5714	907.2857	901.8571	906.5	904.5714	895.2143	900.7143	895.8571	893.9286	891.5714	888.2857	880.0714	879.6429	884.2143	875.8571	877.9286	875.3571	870.2857	874.0	872.7857	867.2143	866.1429
318	826.4286	832.0	850.8571	856.3571	868.3571	879.5	885.6429	895.7143	899.3571	908.9286	909.7143	917.3571	911.0714	914.0	911.9286	907.9286	904.5714	899.0	901.6429	902.5	894.2857	886.9286	885.2143	887.0	882.6429	885.2857	884.9286	881.0	875.2857	873.7143	875.7857	872.2857
319	827.4286	835.0714	841.7143	851.1429	864.7143	869.2143	882.1429	893.4286	895.3571	903.7857	908.1429	911.3571	909.6429	911.5714	905.6429	900.0714	900.0714	897.8571	895.2143	893.2143	888.3571	880.8571	887.8571	882.7857	877.4286	879.4286	876.2857	876.4286	874.8571	871.7143	868.7857	862.0714
320	823.0714	832.8571	845.4286	852.5	866.0	868.5714	880.6429	887.5	903.5	902.7143	905.8571	906.2857	906.0714	908.2857	907.5	901.7143	898.9286	894.0	894.7143	892.2857	887.0	885.2857	880.9286	879.7143	880.2143	878.6429	881.6429	875.3571	873.3571	872.7143	872.1429	860.7143
321	821.5714	837.0714	847.5	858.5714	871.8571	883.0714	887.2857	900.3571	906.8571	914.6429	915.2857	918.5	916.0714	916.6429	909.7857	908.9286	909.5714	896.7857	900.0714	896.4286	893.7857	891.8571	889.8571	887.9286	884.6429	879.2857	886.6429	882.5714	882.4286	878.4286	876.3571	867.0
322	826.8571	840.5714	847.2143	855.5	868.7857	877.2143	886.7857	897.0714	903.7857	911.0	919.5714	917.2143	918.4286	909.4286	908.7143	913.2143	901.4286	899.2857	905.2857	895.1429	896.6429	890.7143	890.5	890.2143	883.5714	888.3571	882.4286	883.2143	879.6429	875.0714	874.7857	868.9286
323	825.8571	838.4286	847.0714	861.6429	870.5	877.2857	884.7143	894.0714	902.2143	912.1429	911.6429	915.5	916.6429	910.0	911.0714	901.4286	904.5714	898.0	893.0714	896.2143	892.2143	889.0	890.7857	887.5	885.6429	879.2857	883.3571	875.5714	876.8571	876.8571	873.0	874.2143
324	827.2857	836.0714	849.5714	853.1429	866.6429	879.7857	883.5	894.9286	903.1429	908.6429	918.2857	910.8571	913.3571	912.8571	913.2857	906.6429	900.0714	896.3571	896.7143	895.0714	888.8571	887.7143	886.0	884.1429	883.0714	881.3571	879.2857	885.7857	878.0	874.4286	879.0714	867.1429
325	828.2857	844.8571	845.5	853.5	871.1429	883.5	890.0	895.3571	908.7857	918.2143	911.7143	913.7143	916.4286	904.7857	908.3571	912.6429	902.7143	901.7143	896.3571	897.5	892.8571	893.3571	887.7857	883.9286	885.7143	882.4286	879.5	877.0714	880.5714	877.3571	868.2857	864.2857
326	831.6429	842.2857	854.0	864.4286	876.6429	891.0714	902.9286	914.2143	923.1429	931.6429	939.7143	941.1429	938.4286	931.2143	933.5	920.2857	923.0714	918.5714	921.0	917.0	913.4286	911.3571	902.7143	905.7143	900.7857	901.2143	900.2143	900.9286	892.2143	889.0	888.7857	879.0
327	822.9286	840.8571	854.2857	856.0	870.3571	881.2143	892.7143	901.8571	909.6429	915.2857	915.2857	916.5	911.5	914.2857	912.9286	905.8571	903.7143	900.5714	896.2143	901.8571	894.6429	891.9286	891.1429	886.0714	885.0714	884.6429	882.2143	885.0714	878.3571	877.7143	872.5714	867.8571
328	830.1429	840.0714	854.5	859.3571	869.2857	880.6429	890.5	900.7143	908.0	917.7143	920.3571	921.2143	920.8571	916.7857	914.6429	910.5	902.7857	901.5	902.3571	897.1429	895.5	893.0714	894.5	888.2857	889.7857	887.3571	882.8571	880.0714	875.2857	881.8571	871.5714	872.9286
329	826.1429	840.8571	852.9286	863.2857	873.3571	890.7143	898.3571	906.8571	913.3571	913.3571	922.1429	921.8571	925.4286	918.7857	920.6429	916.9286	906.2857	906.1429	905.5714	904.6429	904.2143	899.2143	890.0	889.3571	891.7143	884.1429	886.5	884.4286	881.6429	881.0	880.0714	873.2857
330	824.8571	841.4286	854.0714	864.3571	875.2857	881.3571	890.5714	900.3571	909.3571	909.7143	918.7857	918.9286	918.1429	913.6429	914.7143	912.0	908.8571	901.3571	895.7857	896.7857	896.8571	892.4286	889.0	888.7143	888.3571	889.4286	885.5	879.7143	875.5	879.5	873.0	871.5
331	829.6429	837.5714	853.6429	862.4286	866.7143	882.5714	884.0714	902.3571	906.5714	918.5714	920.2143	915.0714	920.5	916.4286	917.8571	911.2143	907.2143	899.9286	897.0	900.8571	895.7143	892.2143	889.7857	888.0714	887.6429	887.8571	877.9286	885.3571	881.8571	876.3571	878.7143	869.2143
332	826.0714	844.7857	849.5714	861.1429	874.6429	888.6429	897.8571	906.4286	913.3571	915.4286	925.2143	927.5714	927.2143	923.0	920.1429	915.3571	913.4286	908.4286	903.1429	910.0	906.7857	899.2857	893.9286	895.0714	894.0	892.0	887.2143	888.5	881.7143	886.2857	883.6429	872.0
333	829.9286	850.3571	856.7857	865.2143	871.1429	886.0714	898.2857	906.7857	915.0714	915.2143	925.8571	930.3571	927.4286	924.8571	919.5	917.6429	912.5	909.4286	909.8571	904.7143	906.3571	898.2857	899.5714	892.5714	894.5714	896.0714	891.2143	885.0714	886.6429	882.9286	877.7143	876.8571
334	827.9286	849.6429	860.2143	868.7143	878.4286	890.2143	903.7143	910.3571	922.8571	924.2857	935.3571	933.5714	929.5714	928.2143	926.7857	923.2857	920.4286	914.6429	910.4286	907.5	914.7857	904.4286	903.7143	895.8571	897.8571	890.2857	893.2143	892.1429	889.2143	885.7857	880.7857	881.7143
335	830.6429	851.0714	863.3571	868.7143	880.2857	889.8571	900.1429	913.5	915.8571	925.0	929.0	927.3571	925.9286	927.6429	924.5714	916.7857	918.2143	910.3571	910.0	912.2143	914.5714	899.5714	897.6429	893.0714	892.7857	897.2857	890.2143	888.8571	887.5	882.7857	877.0714	873.2857
336	828.4	847.73334	865.73334	870.13336	885.5333	896.4	904.73334	915.73334	928.13336	935.06665	940.4	936.86664	938.73334	936.0	935.86664	931.73334	926.26666	923.6667	917.86664	919.5333	912.93335	907.8	906.26666	903.06665	908.3333	903.0	898.93335	901.3333	895.3333	893.0	888.4	882.13336
337	824.7143	838.0	852.8571	868.7143	876.7143	896.5714	907.3571	917.0	930.0714	939.6429	941.9286	939.6429	939.3571	939.6429	934.3571	931.9286	921.5714	918.2857	921.4286	917.2143	912.8571	908.1429	910.5	903.7143	903.3571	894.9286	903.8571	898.0	894.7143	889.6429	892.7857	878.7143
338	827.0714	836.3571	853.7857	863.6429	875.7857	888.4286	904.0714	916.7143	921.8571	931.2857	937.2857	936.6429	935.1429	930.6429	932.0714	924.5	918.8571	915.8571	916.9286	916.0	907.7143	907.9286	903.7857	900.7143	901.2143	894.4286	901.0714	892.7857	893.2143	893.7857	881.8571	880.9286
339	825.2143	837.5	852.2857	862.2857	880.8571	894.0714	905.2143	918.0714	928.0	933.9286	938.5714	939.0	938.9286	933.9286	928.3571	924.0	920.2143	914.2857	917.0	913.9286	911.5	905.7857	893.7857	896.4286	899.7143	894.0714	898.5	897.2857	886.0	885.6429	882.8571	878.9286
340	827.0714	833.4286	850.9286	861.4286	867.7143	879.3571	894.9286	903.9286	910.0714	913.5	923.7143	920.1429	923.7143	917.0	921.0	910.5	909.8571	905.2143	907.2857	904.5	897.7857	892.5714	897.7857	891.7857	890.0	893.2143	887.0	885.6429	883.3571	886.6429	879.0	875.1429
341	822.3571	838.0	851.9286	862.0	878.6429	889.2143	903.5	906.0	918.5714	927.5	929.4286	933.0714	933.2857	922.6429	922.9286	916.9286	916.3571	908.0	908.3571	906.2143	904.4286	903.9286	897.5	896.3571	889.1429	893.7143	888.6429	890.3571	892.7143	880.6429	878.2857	879.4286
342	824.5714	835.0	850.3571	855.7143	868.5	873.2857	894.0	895.2857	902.3571	911.1429	910.5	914.3571	911.0714	907.5714	904.2857	903.4286	900.4286	898.0	894.7143	891.8571	890.5	884.9286	884.1429	882.0714	877.5	881.6429	880.7143	881.0714	877.5	874.4286	869.4286	865.1429
343	824.5	838.1429	849.1429	849.5714	862.6429	873.1429	880.5	891.0	897.0714	901.2143	905.0	905.7857	902.7857	905.7857	904.5	900.1429	895.5	893.7143	889.5714	887.2143	886.9286	882.5714	880.9286	882.4286	881.7857	880.9286	873.4286	873.0714	869.1429	868.2857	868.0	867.7857
344	821.0714	832.7143	847.5	855.5714	864.5714	875.6429	886.0	895.7857	899.4286	910.4286	912.4286	913.3571	912.3571	910.3571	906.9286	902.3571	902.8571	899.6429	899.5	896.0	890.1429	883.0714	884.0714	883.7857	885.0	878.5714	881.7143	876.7857	877.1429	874.2143	874.2857	868.4286
345	821.8571	848.4286	854.7857	856.0	865.8571	879.0	885.5	899.9286	908.5714	913.7143	914.7143	915.0714	915.7857	917.7857	913.7857	907.2857	906.5	901.5714	902.0714	902.8571	894.8571	887.4286	891.7143	886.1429	884.5	885.2857	885.7143	876.2143	876.0714	875.3571	870.5	868.5
346	829.9286	839.5714	852.8571	869.4286	877.8571	891.7143	902.8571	916.6429	919.5714	930.2143	936.2857	934.7857	930.1429	919.9286	926.0	931.3571	923.3571	912.0714	911.8571	911.3571	904.0714	907.2143	898.2857	894.7143	898.9286	891.3571	897.4286	896.3571	888.7143	885.5714	883.3571	876.7857
347	824.5	844.3571	854.5	855.8571	865.2857	871.0714	885.0	893.0714	901.2143	905.7143	911.1429	913.7857	908.5714	908.0714	906.8571	901.3571	902.5	893.7857	891.5714	890.5714	890.6429	890.5	881.7143	879.2143	881.6429	876.0	875.2143	878.3571	875.2857	869.4286	868.3571	864.9286
348	825.1429	845.4286	847.7143	857.8571	867.0714	877.3571	888.0	893.0714	905.4286	910.4286	916.3571	914.6429	913.4286	911.0714	908.5714	904.2857	903.4286	894.1429	897.0	889.7143	892.0	891.0	887.5	880.2143	880.0714	882.0714	868.8571	879.7143	872.7143	875.5714	872.6429	864.9286
349	826.6429	841.0714	850.5	859.5	871.5	875.4286	888.8571	898.5	903.8571	908.9286	910.1429	909.0714	917.0	907.4286	909.9286	908.0	897.8571	896.0	895.7143	894.7857	889.9286	890.3571	889.5	882.1429	882.4286	882.8571	881.5	877.0714	879.2857	871.2143	871.6429	865.6429
350	819.2143	849.0	855.1429	862.5	870.5714	876.2143	889.1429	900.7143	911.4286	920.2143	920.1429	916.6429	916.9286	917.3571	910.1429	914.2143	911.1429	899.8571	903.3571	898.0714	896.5	893.5	890.7143	887.6429	884.7857	888.2143	892.0	886.5714	877.8571	882.3571	872.4286	869.3571
351	823.7857	841.4286	858.2857	858.7857	873.8571	884.4286	895.2143	902.7143	911.0714	916.4286	921.3571	919.9286	917.5	913.7143	918.5714	913.7143	910.4286	907.7857	899.5	897.4286	896.4286	898.2857	892.0714	885.0714	888.7857	882.5	886.4286	881.7143	878.3571	877.6429	879.3571	870.7143
352	823.8571	840.5714	854.1429	863.2857	876.3571	884.7143	897.7143	904.6429	915.4286	918.5	923.7143	924.3571	927.9286	921.8571	916.5714	916.7857	910.5	904.2143	904.1429	903.0	903.8571	898.7143	897.0	887.9286	888.8571	885.5714	886.5714	884.7857	878.7143	881.7857	881.5714	866.7143
353	827.4286	846.0714	860.3571	867.6429	886.3571	900.0	911.0714	925.4286	937.8571	943.2143	947.7143	942.0	943.3571	942.3571	933.7143	937.5714	928.5	922.6429	924.5714	920.4286	910.1429	906.5	909.6429	907.7857	905.1429	898.7857	902.2857	900.0	894.6429	895.0714	884.7857	882.3571
354	827.6429	846.2143	854.8571	862.4286	875.5714	880.5714	898.4286	905.5714	910.7857	915.2143	918.7857	923.5714	915.7143	918.1429	918.7857	912.0	905.6429	904.9286	902.4286	897.2143	901.2143	891.1429	891.7857	886.5714	882.3571	883.0	887.9286	883.4286	880.6429	877.9286	873.8571	870.4286
355	820.2143	850.6429	856.5714	859.2857	873.0714	880.5714	891.7857	901.0714	910.3571	914.2857	922.9286	918.6429	920.7857	917.5714	912.3571	912.7857	904.0	900.7143	900.4286	899.2143	897.3571	891.4286	888.2857	884.8571	887.7143	884.0	885.8571	883.2857	875.2143	874.5	876.5	871.7143
356	826.4286	852.0	860.7143	866.2857	869.2857	881.6429	892.7143	899.0714	910.5714	916.0714	922.7143	920.1429	919.5714	919.6429	910.6429	911.3571	906.3571	905.3571	899.0	901.2143	896.5	891.5	889.6429	887.3571	888.5714	883.6429	881.8571	882.7857	877.7857	881.6429	874.7857	866.7143
357	826.5714	849.5	861.2857	864.5	878.4286	887.1429	898.2857	907.0714	912.7143	918.2143	925.0714	930.5	926.7857	919.8571	919.1429	909.7143	918.5	903.9286	903.1429	903.9286	903.0	900.0	893.7857	891.3571	893.0714	888.0	891.4286	886.9286	882.5	881.7143	880.6429	871.2143
358	832.7143	861.4286	868.2857	872.7143	881.9286	895.6429	907.0714	918.1429	921.6429	931.8571	939.0	936.6429	938.5714	931.5	930.8571	919.8571	918.7857	915.5714	915.4286	912.5714	902.7857	904.0714	899.7143	897.0714	899.0	892.4286	894.7857	892.8571	893.6429	881.0714	886.5714	882.2857
359	827.0	860.5	876.4286	870.0	876.8571	891.5	895.4286	912.1429	920.8571	922.7857	925.3571	924.4286	927.1429	918.9286	924.6429	915.2143	911.0	906.7857	904.4286	903.8571	905.7143	890.9286	899.9286	892.4286	890.7857	892.2143	893.0	887.6429	884.0	879.1429	880.0	874.2143
360	835.13336	850.6	865.73334	870.6	874.6667	887.4	900.93335	907.86664	917.86664	918.73334	929.3333	929.06665	929.6667	922.86664	927.26666	917.6	919.6	910.5333	911.06665	902.26666	902.93335	901.73334	895.2	896.73334	887.73334	888.6667	891.6	886.8	886.13336	883.4667	877.8	870.86664
361	823.3571	838.9286	864.5714	879.0	906.0714	916.5714	943.7857	954.2857	972.9286	979.8571	988.0714	988.1429	985.5	985.2857	968.0	969.2143	957.9286	954.5	949.0	945.3571	942.3571	936.6429	937.0714	930.9286	932.9286	929.0	929.1429	924.5	920.5	916.9286	909.0714	902.5
362	821.0714	836.2143	859.5	877.6429	896.4286	909.7143	930.5714	940.5714	959.0	965.9286	975.9286	973.3571	966.2143	959.9286	952.7143	955.0714	943.7857	941.2143	938.3571	931.5714	935.2857	931.2143	920.2857	915.5	917.0714	911.3571	916.4286	908.8571	910.1429	904.1429	898.5714	892.4286
363	824.8571	833.0	850.0	857.5714	874.3571	884.1429	896.8571	911.7143	914.4286	929.0714	927.0714	928.2143	927.7143	926.7143	922.5714	916.7143	912.1429	909.0714	905.7857	911.4286	902.0714	899.5	895.8571	890.0714	895.0714	891.7143	893.0714	894.0714	886.5	886.5	883.8571	874.5
364	824.0714	832.7857	857.9286	870.7143	886.5714	902.9286	918.1429	930.2857	943.8571	948.0714	953.5	954.3571	953.3571	950.0	946.2143	938.5714	935.7143	934.0	928.2143	927.0	920.6429	923.7143	915.7143	909.8571	907.8571	913.0	910.9286	907.2143	899.2143	901.2857	891.8571	887.9286
365	825.0	840.7857	866.7857	888.7857	908.6429	927.3571	952.0714	968.0	984.7143	996.1429	998.9286	1003.8571	992.2857	989.8571	975.9286	972.5	967.0714	964.0714	958.6429	958.0	948.7143	948.1429	940.1429	936.5	934.9286	936.9286	939.8571	932.0	930.8571	915.2857	916.5714	905.0
366	824.4286	835.0714	855.4286	871.9286	884.8571	900.2857	918.7143	932.7857	945.9286	952.7857	958.2857	962.9286	963.4286	958.2857	948.0714	947.4286	938.9286	935.3571	935.3571	937.5714	932.8571	928.1429	927.1429	921.0	920.8571	923.3571	923.2143	913.5714	913.7857	911.5714	908.5	899.6429
367	821.9286	840.7143	853.4286	862.3571	877.3571	889.3571	905.0714	913.2857	928.2143	931.7857	936.7857	939.7857	937.7857	930.3571	925.0714	924.0714	920.0	919.4286	910.0714	905.7143	904.9286	900.1429	902.5	897.7143	896.9286	896.2857	893.5714	895.1429	888.2143	884.7143	883.6429	879.0714
368	823.5	835.2143	858.9286	871.4286	883.5	899.5714	910.0	920.5	931.3571	941.7857	953.3571	953.6429	954.2857	942.6429	937.8571	934.0714	933.9286	924.5	924.2143	919.2857	917.1429	911.0714	911.5714	906.6429	910.2143	906.6429	902.7857	901.7857	901.2143	891.1429	888.6429	882.8571
369	820.3571	841.3571	858.1429	872.7143	880.5714	897.9286	908.5714	925.2143	937.8571	940.8571	950.2143	951.5	947.3571	942.0	939.0	936.5	927.7857	921.7857	924.8571	919.7857	909.5714	910.5	911.5	904.2857	906.2143	903.3571	902.0	898.0	892.5	893.5714	890.1429	884.1429
370	823.7857	832.2143	861.8571	872.2857	880.2143	902.0714	914.7143	922.0714	930.8571	942.2857	948.5	946.5714	943.4286	942.2857	941.2143	937.2857	930.0	923.2857	925.5	921.3571	916.0714	912.7143	905.5	907.5714	907.4286	901.7857	899.5714	903.0714	897.7857	890.2857	894.8571	883.5714
371	824.4286	842.7143	853.5714	866.8571	878.0	889.2857	904.6429	915.2143	926.2857	929.2143	932.0714	937.7857	929.9286	934.3571	928.9286	922.0	925.0	912.3571	915.3571	912.8571	907.2143	904.2857	899.7143	893.7857	897.0714	899.6429	897.5	892.5	889.2857	884.5	879.7143	876.0714
372	821.2143	839.0	858.7143	860.9286	878.7143	892.3571	904.7143	913.0714	930.2143	932.5	938.5714	941.2143	927.8571	931.8571	926.2857	928.6429	918.5	914.0714	912.5	914.6429	907.9286	901.5714	903.6429	897.1429	898.7857	899.3571	897.5714	896.2857	888.7857	888.2857	886.5714	874.0
373	819.7857	839.7143	856.1429	872.3571	886.5714	891.1429	906.2143	922.7857	927.7143	939.5	944.5	947.4286	945.6429	943.5	936.0	940.0714	924.9286	928.4286	923.9286	918.4286	912.6429	908.9286	907.7857	907.5714	904.2143	902.7143	903.5714	904.6429	893.1429	890.2143	890.7143	883.0
374	825.5	840.0	863.3571	872.1429	880.7143	888.7857	905.3571	921.2857	933.6429	942.7857	941.7143	941.7143	942.7143	938.1429	931.2143	935.3571	926.3571	922.7857	919.7143	918.5714	913.8571	910.0	901.5714	902.9286	908.2143	902.1429	904.0714	891.9286	890.0	897.7143	884.0714	878.0
375	819.5714	836.5	860.5	874.1429	890.7143	903.8571	920.2857	935.8571	941.9286	952.9286	953.4286	956.7857	954.1429	947.7143	942.9286	943.0714	935.5714	929.4286	927.4286	917.4286	923.3571	917.9286	915.9286	909.0	907.2857	910.7143	907.4286	904.0	903.2143	898.3571	891.8571	889.6429
376	821.2143	841.3571	857.2143	867.8571	882.3571	892.8571	907.0714	922.8571	926.8571	937.9286	947.0	946.3571	942.5714	936.6429	936.0714	931.4286	923.3571	924.2143	920.2857	917.7143	914.6429	909.1429	909.8571	904.6429	894.2143	897.4286	898.0	895.2857	892.9286	895.4286	889.2857	881.2857
377	826.6429	840.6429	859.5714	872.0	888.5	904.0	918.6429	928.2143	945.2143	948.6429	953.9286	954.7143	951.1429	950.1429	945.0	944.0714	937.9286	930.9286	928.9286	924.6429	920.9286	917.6429	919.4286	911.0714	908.1429	910.6429	907.9286	902.5	901.8571	900.1429	893.2143	887.8571
378	825.6429	843.0714	873.9286	887.5	906.1429	922.0	939.2857	956.0714	968.7143	976.2857	980.2143	986.8571	973.7143	976.2143	967.7143	963.7857	956.0	955.2143	948.5714	945.5	944.0714	933.2857	934.7143	923.5	925.8571	928.5	928.0714	920.2857	913.5	908.1429	909.2143	900.5714
379	821.7143	840.7857	860.1429	876.2143	888.7143	903.3571	915.0	927.0	940.5	943.7857	951.4286	956.5	957.5	951.2143	945.0714	947.2143	934.7857	928.7143	931.5714	926.5	920.1429	915.6429	914.7857	905.5714	908.7857	909.3571	909.8571	902.0714	899.5714	895.5714	894.1429	885.7857
380	824.2143	843.5	864.5714	878.3571	891.8571	904.9286	921.7143	934.2857	941.1429	958.7857	955.6429	959.5714	953.7857	956.4286	946.6429	942.6429	939.0714	936.8571	929.8571	933.5	919.6429	919.2143	915.9286	916.0	915.3571	911.3571	911.7857	909.2143	904.6429	900.7857	897.0714	886.8571
381	827.0	850.4286	874.4286	884.7857	895.2857	910.9286	926.2143	940.6429	955.7143	959.5714	969.8571	967.0714	965.0714	959.4286	948.3571	950.4286	945.6429	941.0	939.1429	932.6429	928.3571	928.2857	917.2857	920.2143	917.4286	914.3571	916.2857	910.6429	906.1429	907.1429	894.7857	894.8571
382	831.1429	853.1429	871.7143	891.0714	901.1429	926.2143	941.1429	959.4286	971.7857	982.3571	990.5	984.5	983.2857	982.6429	973.2857	971.5714	960.0	959.5714	956.8571	954.5714	946.0714	945.4286	937.4286	932.5	938.4286	933.7857	928.2857	923.7857	927.8571	918.6429	916.8571	904.9286
383	832.5714	852.7857	889.5	897.1429	901.2143	921.0714	932.7143	951.2143	968.8571	971.8571	987.2143	980.1429	984.2143	980.0714	971.1429	970.1429	963.1429	959.1429	956.8571	951.5	939.5714	933.9286	939.4286	927.2857	931.3571	927.6429	926.0714	921.9286	915.6429	910.0	901.5714	899.6429
384	833.6667	879.6	885.2	896.26666	904.86664	921.6	939.93335	957.2	972.86664	981.86664	984.5333	993.5333	989.4667	986.73334	978.3333	976.5333	966.8	968.3333	958.5333	956.8	946.4	946.73334	941.2	937.5333	932.5333	934.6	936.5333	930.6	926.6	927.13336	913.6	904.93335
